18edc65ce4defa5aa7f9fae779d22655fd766771,taskName,taskNumber,taskURL,name,response,serial,declined,submitLatency,log_serial,trial_id,responseHandle,latency,stimuli,media,data,block3Cond,feedback,d
18edc65ce4defa5aa7f9fae779d22655fd766771,namelessTask,1,,,,,,,,,,,,,,,,
18edc65ce4defa5aa7f9fae779d22655fd766771,my-quest,2,quest.js,,,,,,,,,,,,,,,
18edc65ce4defa5aa7f9fae779d22655fd766771,my-quest,,,item8,NaN,0,,191,,,,,,,,,,
18edc65ce4defa5aa7f9fae779d22655fd766771,my-quest,,,item1,NaN,1,,175.19999999925494,,,,,,,,,,
18edc65ce4defa5aa7f9fae779d22655fd766771,my-quest,,,item7,NaN,4,,190.69999999925494,,,,,,,,,,
18edc65ce4defa5aa7f9fae779d22655fd766771,my-quest,,,item2,NaN,5,,191.59999999776483,,,,,,,,,,
18edc65ce4defa5aa7f9fae779d22655fd766771,my-quest,,,item9,NaN,7,,191.90000000223517,,,,,,,,,,
18edc65ce4defa5aa7f9fae779d22655fd766771,my-quest,,,item10,NaN,9,,457.30000000074506,,,,,,,,,,
18edc65ce4defa5aa7f9fae779d22655fd766771,my-time,3,time.js,,,,,,,,,,,,,,,
18edc65ce4defa5aa7f9fae779d22655fd766771,my-time,,,instructions,,,,,0,0,space,5441,"[""dummy""]","["" ""]","{""blockStart"":true,""condition"":""instructions"",""score"":0,""block"":0}",,,
18edc65ce4defa5aa7f9fae779d22655fd766771,my-time,,,cat1right,,,,,1,1,right,1112,"[""Poor people""]","[""poverty2.jpg""]","{""score"":0,""parcel"":""first"",""corResp"":""right"",""condition"":""Middle people,Poor people"",""block"":1}",,,
18edc65ce4defa5aa7f9fae779d22655fd766771,my-time,,,cat1right,,,,,2,2,right,2122,"[""Poor people""]","[""poverty5.jpg""]","{""score"":0,""parcel"":""first"",""corResp"":""right"",""condition"":""Middle people,Poor people"",""block"":1}",,,
18edc65ce4defa5aa7f9fae779d22655fd766771,my-time,,,cat2left,,,,,3,3,left,857,"[""Middle people""]","[""rich3.jpg""]","{""score"":0,""parcel"":""first"",""corResp"":""left"",""condition"":""Middle people,Poor people"",""block"":1}",,,
18edc65ce4defa5aa7f9fae779d22655fd766771,my-time,,,cat2left,,,,,4,4,left,752,"[""Middle people""]","[""rich2.jpg""]","{""score"":0,""parcel"":""first"",""corResp"":""left"",""condition"":""Middle people,Poor people"",""block"":1}",,,
18edc65ce4defa5aa7f9fae779d22655fd766771,my-time,,,cat2left,,,,,5,5,left,667,"[""Middle people""]","[""rich4.jpg""]","{""score"":0,""parcel"":""first"",""corResp"":""left"",""condition"":""Middle people,Poor people"",""block"":1}",,,
18edc65ce4defa5aa7f9fae779d22655fd766771,my-time,,,cat2left,,,,,6,6,left,764,"[""Middle people""]","[""rich5.jpg""]","{""score"":0,""parcel"":""first"",""corResp"":""left"",""condition"":""Middle people,Poor people"",""block"":1}",,,
18edc65ce4defa5aa7f9fae779d22655fd766771,my-time,,,cat1right,,,,,7,7,right,669,"[""Poor people""]","[""poverty3.jpg""]","{""score"":0,""parcel"":""first"",""corResp"":""right"",""condition"":""Middle people,Poor people"",""block"":1}",,,
18edc65ce4defa5aa7f9fae779d22655fd766771,my-time,,,cat1right,,,,,8,8,right,958,"[""Poor people""]","[""poverty1.jpg""]","{""score"":0,""parcel"":""first"",""corResp"":""right"",""condition"":""Middle people,Poor people"",""block"":1}",,,
18edc65ce4defa5aa7f9fae779d22655fd766771,my-time,,,cat2left,,,,,9,9,left,725,"[""Middle people""]","[""rich1.jpg""]","{""score"":0,""parcel"":""first"",""corResp"":""left"",""condition"":""Middle people,Poor people"",""block"":1}",,,
18edc65ce4defa5aa7f9fae779d22655fd766771,my-time,,,cat2left,,,,,10,10,left,906,"[""Middle people""]","[""rich6.jpg""]","{""score"":0,""parcel"":""first"",""corResp"":""left"",""condition"":""Middle people,Poor people"",""block"":1}",,,
18edc65ce4defa5aa7f9fae779d22655fd766771,my-time,,,cat1right,,,,,11,11,right,740,"[""Poor people""]","[""poverty4.jpg""]","{""score"":0,""parcel"":""first"",""corResp"":""right"",""condition"":""Middle people,Poor people"",""block"":1}",,,
18edc65ce4defa5aa7f9fae779d22655fd766771,my-time,,,cat1right,,,,,12,12,right,599,"[""Poor people""]","[""poverty6.jpg""]","{""score"":0,""parcel"":""first"",""corResp"":""right"",""condition"":""Middle people,Poor people"",""block"":1}",,,
18edc65ce4defa5aa7f9fae779d22655fd766771,my-time,,,cat2left,,,,,13,13,left,585,"[""Middle people""]","[""rich3.jpg""]","{""score"":0,""parcel"":""first"",""corResp"":""left"",""condition"":""Middle people,Poor people"",""block"":1}",,,
18edc65ce4defa5aa7f9fae779d22655fd766771,my-time,,,cat1right,,,,,14,14,right,973,"[""Poor people""]","[""poverty5.jpg""]","{""score"":1,""parcel"":""first"",""corResp"":""right"",""condition"":""Middle people,Poor people"",""block"":1}",,,
18edc65ce4defa5aa7f9fae779d22655fd766771,my-time,,,cat2left,,,,,15,15,left,879,"[""Middle people""]","[""rich6.jpg""]","{""score"":0,""parcel"":""first"",""corResp"":""left"",""condition"":""Middle people,Poor people"",""block"":1}",,,
18edc65ce4defa5aa7f9fae779d22655fd766771,my-time,,,cat1right,,,,,16,16,right,869,"[""Poor people""]","[""poverty1.jpg""]","{""score"":0,""parcel"":""first"",""corResp"":""right"",""condition"":""Middle people,Poor people"",""block"":1}",,,
18edc65ce4defa5aa7f9fae779d22655fd766771,my-time,,,cat2left,,,,,17,17,left,761,"[""Middle people""]","[""rich4.jpg""]","{""score"":0,""parcel"":""first"",""corResp"":""left"",""condition"":""Middle people,Poor people"",""block"":1}",,,
18edc65ce4defa5aa7f9fae779d22655fd766771,my-time,,,cat1right,,,,,18,18,right,762,"[""Poor people""]","[""poverty4.jpg""]","{""score"":0,""parcel"":""first"",""corResp"":""right"",""condition"":""Middle people,Poor people"",""block"":1}",,,
18edc65ce4defa5aa7f9fae779d22655fd766771,my-time,,,cat2left,,,,,19,19,left,783,"[""Middle people""]","[""rich5.jpg""]","{""score"":0,""parcel"":""first"",""corResp"":""left"",""condition"":""Middle people,Poor people"",""block"":1}",,,
18edc65ce4defa5aa7f9fae779d22655fd766771,my-time,,,cat1right,,,,,20,20,right,744,"[""Poor people""]","[""poverty3.jpg""]","{""score"":0,""parcel"":""first"",""corResp"":""right"",""condition"":""Middle people,Poor people"",""block"":1}",,,
18edc65ce4defa5aa7f9fae779d22655fd766771,my-time,,,instructions,,,,,21,21,space,1998,"[""dummy""]","["" ""]","{""blockStart"":true,""condition"":""instructions"",""score"":0,""block"":0}",,,
18edc65ce4defa5aa7f9fae779d22655fd766771,my-time,,,att1left,,,,,22,22,left,990,"[""Bad words""]","[""最悪""]","{""score"":0,""parcel"":""first"",""corResp"":""left"",""condition"":""Bad words,Good words"",""block"":2}",,,
18edc65ce4defa5aa7f9fae779d22655fd766771,my-time,,,att1left,,,,,23,23,left,501,"[""Bad words""]","[""悪""]","{""score"":0,""parcel"":""first"",""corResp"":""left"",""condition"":""Bad words,Good words"",""block"":2}",,,
18edc65ce4defa5aa7f9fae779d22655fd766771,my-time,,,att2right,,,,,24,24,right,1718,"[""Good words""]","[""栄光""]","{""score"":1,""parcel"":""first"",""corResp"":""right"",""condition"":""Bad words,Good words"",""block"":2}",,,
18edc65ce4defa5aa7f9fae779d22655fd766771,my-time,,,att2right,,,,,25,25,right,1088,"[""Good words""]","[""楽しい""]","{""score"":0,""parcel"":""first"",""corResp"":""right"",""condition"":""Bad words,Good words"",""block"":2}",,,
18edc65ce4defa5aa7f9fae779d22655fd766771,my-time,,,att1left,,,,,26,26,left,1019,"[""Bad words""]","[""汚い""]","{""score"":0,""parcel"":""first"",""corResp"":""left"",""condition"":""Bad words,Good words"",""block"":2}",,,
18edc65ce4defa5aa7f9fae779d22655fd766771,my-time,,,att2right,,,,,27,27,right,1106,"[""Good words""]","[""素晴らしい""]","{""score"":1,""parcel"":""first"",""corResp"":""right"",""condition"":""Bad words,Good words"",""block"":2}",,,
18edc65ce4defa5aa7f9fae779d22655fd766771,my-time,,,att2right,,,,,28,28,right,1060,"[""Good words""]","[""笑顔""]","{""score"":0,""parcel"":""first"",""corResp"":""right"",""condition"":""Bad words,Good words"",""block"":2}",,,
18edc65ce4defa5aa7f9fae779d22655fd766771,my-time,,,att1left,,,,,29,29,left,858,"[""Bad words""]","[""ひどい""]","{""score"":0,""parcel"":""first"",""corResp"":""left"",""condition"":""Bad words,Good words"",""block"":2}",,,
18edc65ce4defa5aa7f9fae779d22655fd766771,my-time,,,att2right,,,,,30,30,right,1335,"[""Good words""]","[""すばらしい""]","{""score"":1,""parcel"":""first"",""corResp"":""right"",""condition"":""Bad words,Good words"",""block"":2}",,,
18edc65ce4defa5aa7f9fae779d22655fd766771,my-time,,,att1left,,,,,31,31,left,647,"[""Bad words""]","[""傷""]","{""score"":0,""parcel"":""first"",""corResp"":""left"",""condition"":""Bad words,Good words"",""block"":2}",,,
18edc65ce4defa5aa7f9fae779d22655fd766771,my-time,,,att2right,,,,,32,32,right,1006,"[""Good words""]","[""愛""]","{""score"":0,""parcel"":""first"",""corResp"":""right"",""condition"":""Bad words,Good words"",""block"":2}",,,
18edc65ce4defa5aa7f9fae779d22655fd766771,my-time,,,att1left,,,,,33,33,left,760,"[""Bad words""]","[""失敗""]","{""score"":0,""parcel"":""first"",""corResp"":""left"",""condition"":""Bad words,Good words"",""block"":2}",,,
18edc65ce4defa5aa7f9fae779d22655fd766771,my-time,,,att2right,,,,,34,34,right,687,"[""Good words""]","[""楽しい""]","{""score"":0,""parcel"":""first"",""corResp"":""right"",""condition"":""Bad words,Good words"",""block"":2}",,,
18edc65ce4defa5aa7f9fae779d22655fd766771,my-time,,,att2right,,,,,35,35,right,958,"[""Good words""]","[""平和""]","{""score"":0,""parcel"":""first"",""corResp"":""right"",""condition"":""Bad words,Good words"",""block"":2}",,,
18edc65ce4defa5aa7f9fae779d22655fd766771,my-time,,,att1left,,,,,36,36,left,675,"[""Bad words""]","[""苦しみ""]","{""score"":0,""parcel"":""first"",""corResp"":""left"",""condition"":""Bad words,Good words"",""block"":2}",,,
18edc65ce4defa5aa7f9fae779d22655fd766771,my-time,,,att1left,,,,,37,37,left,602,"[""Bad words""]","[""ひどい""]","{""score"":0,""parcel"":""first"",""corResp"":""left"",""condition"":""Bad words,Good words"",""block"":2}",,,
18edc65ce4defa5aa7f9fae779d22655fd766771,my-time,,,att1left,,,,,38,38,left,699,"[""Bad words""]","[""ひどい""]","{""score"":0,""parcel"":""first"",""corResp"":""left"",""condition"":""Bad words,Good words"",""block"":2}",,,
18edc65ce4defa5aa7f9fae779d22655fd766771,my-time,,,att1left,,,,,39,39,left,940,"[""Bad words""]","[""悪""]","{""score"":0,""parcel"":""first"",""corResp"":""left"",""condition"":""Bad words,Good words"",""block"":2}",,,
18edc65ce4defa5aa7f9fae779d22655fd766771,my-time,,,att2right,,,,,40,40,right,639,"[""Good words""]","[""栄光""]","{""score"":0,""parcel"":""first"",""corResp"":""right"",""condition"":""Bad words,Good words"",""block"":2}",,,
18edc65ce4defa5aa7f9fae779d22655fd766771,my-time,,,att2right,,,,,41,41,right,1234,"[""Good words""]","[""愛""]","{""score"":1,""parcel"":""first"",""corResp"":""right"",""condition"":""Bad words,Good words"",""block"":2}",,,
18edc65ce4defa5aa7f9fae779d22655fd766771,my-time,,,instructions,,,,,42,42,space,1134,"[""dummy""]","["" ""]","{""blockStart"":true,""condition"":""instructions"",""score"":0,""block"":0}",,,
18edc65ce4defa5aa7f9fae779d22655fd766771,my-time,,,cat2left,,,,,43,43,left,4825,"[""Middle people""]","[""rich2.jpg""]","{""score"":1,""parcel"":""first"",""corResp"":""left"",""condition"":""Middle people/Bad words,Poor people/Good words"",""block"":3}",,,
18edc65ce4defa5aa7f9fae779d22655fd766771,my-time,,,att2right,,,,,44,44,right,1827,"[""Good words""]","[""楽しい""]","{""score"":0,""parcel"":""first"",""corResp"":""right"",""condition"":""Middle people/Bad words,Poor people/Good words"",""block"":3}",,,
18edc65ce4defa5aa7f9fae779d22655fd766771,my-time,,,cat1right,,,,,45,45,right,2437,"[""Poor people""]","[""poverty6.jpg""]","{""score"":0,""parcel"":""first"",""corResp"":""right"",""condition"":""Middle people/Bad words,Poor people/Good words"",""block"":3}",,,
18edc65ce4defa5aa7f9fae779d22655fd766771,my-time,,,att1left,,,,,46,46,left,2480,"[""Bad words""]","[""苦しみ""]","{""score"":0,""parcel"":""first"",""corResp"":""left"",""condition"":""Middle people/Bad words,Poor people/Good words"",""block"":3}",,,
18edc65ce4defa5aa7f9fae779d22655fd766771,my-time,,,cat1right,,,,,47,47,right,6170,"[""Poor people""]","[""poverty2.jpg""]","{""score"":0,""parcel"":""first"",""corResp"":""right"",""condition"":""Middle people/Bad words,Poor people/Good words"",""block"":3}",,,
18edc65ce4defa5aa7f9fae779d22655fd766771,my-time,,,att1left,,,,,48,48,left,721,"[""Bad words""]","[""ひどい""]","{""score"":0,""parcel"":""first"",""corResp"":""left"",""condition"":""Middle people/Bad words,Poor people/Good words"",""block"":3}",,,
18edc65ce4defa5aa7f9fae779d22655fd766771,my-time,,,cat2left,,,,,49,49,left,1441,"[""Middle people""]","[""rich1.jpg""]","{""score"":1,""parcel"":""first"",""corResp"":""left"",""condition"":""Middle people/Bad words,Poor people/Good words"",""block"":3}",,,
18edc65ce4defa5aa7f9fae779d22655fd766771,my-time,,,att2right,,,,,50,50,right,4018,"[""Good words""]","[""すばらしい""]","{""score"":1,""parcel"":""first"",""corResp"":""right"",""condition"":""Middle people/Bad words,Poor people/Good words"",""block"":3}",,,
18edc65ce4defa5aa7f9fae779d22655fd766771,my-time,,,cat2left,,,,,51,51,left,843,"[""Middle people""]","[""rich6.jpg""]","{""score"":0,""parcel"":""first"",""corResp"":""left"",""condition"":""Middle people/Bad words,Poor people/Good words"",""block"":3}",,,
18edc65ce4defa5aa7f9fae779d22655fd766771,my-time,,,att1left,,,,,52,52,left,1208,"[""Bad words""]","[""傷""]","{""score"":0,""parcel"":""first"",""corResp"":""left"",""condition"":""Middle people/Bad words,Poor people/Good words"",""block"":3}",,,
18edc65ce4defa5aa7f9fae779d22655fd766771,my-time,,,cat1right,,,,,53,53,right,833,"[""Poor people""]","[""poverty4.jpg""]","{""score"":0,""parcel"":""first"",""corResp"":""right"",""condition"":""Middle people/Bad words,Poor people/Good words"",""block"":3}",,,
18edc65ce4defa5aa7f9fae779d22655fd766771,my-time,,,att2right,,,,,54,54,right,1863,"[""Good words""]","[""素晴らしい""]","{""score"":1,""parcel"":""first"",""corResp"":""right"",""condition"":""Middle people/Bad words,Poor people/Good words"",""block"":3}",,,
18edc65ce4defa5aa7f9fae779d22655fd766771,my-time,,,cat1right,,,,,55,55,right,1124,"[""Poor people""]","[""poverty5.jpg""]","{""score"":1,""parcel"":""first"",""corResp"":""right"",""condition"":""Middle people/Bad words,Poor people/Good words"",""block"":3}",,,
18edc65ce4defa5aa7f9fae779d22655fd766771,my-time,,,att1left,,,,,56,56,left,4734,"[""Bad words""]","[""失敗""]","{""score"":0,""parcel"":""first"",""corResp"":""left"",""condition"":""Middle people/Bad words,Poor people/Good words"",""block"":3}",,,
18edc65ce4defa5aa7f9fae779d22655fd766771,my-time,,,cat2left,,,,,57,57,left,3241,"[""Middle people""]","[""rich5.jpg""]","{""score"":0,""parcel"":""first"",""corResp"":""left"",""condition"":""Middle people/Bad words,Poor people/Good words"",""block"":3}",,,
18edc65ce4defa5aa7f9fae779d22655fd766771,my-time,,,att2right,,,,,58,58,right,1149,"[""Good words""]","[""笑顔""]","{""score"":0,""parcel"":""first"",""corResp"":""right"",""condition"":""Middle people/Bad words,Poor people/Good words"",""block"":3}",,,
18edc65ce4defa5aa7f9fae779d22655fd766771,my-time,,,cat2left,,,,,59,59,left,2395,"[""Middle people""]","[""rich4.jpg""]","{""score"":0,""parcel"":""first"",""corResp"":""left"",""condition"":""Middle people/Bad words,Poor people/Good words"",""block"":3}",,,
18edc65ce4defa5aa7f9fae779d22655fd766771,my-time,,,att2right,,,,,60,60,right,3291,"[""Good words""]","[""楽しい""]","{""score"":0,""parcel"":""first"",""corResp"":""right"",""condition"":""Middle people/Bad words,Poor people/Good words"",""block"":3}",,,
18edc65ce4defa5aa7f9fae779d22655fd766771,my-time,,,cat1right,,,,,61,61,right,2236,"[""Poor people""]","[""poverty2.jpg""]","{""score"":0,""parcel"":""first"",""corResp"":""right"",""condition"":""Middle people/Bad words,Poor people/Good words"",""block"":3}",,,
18edc65ce4defa5aa7f9fae779d22655fd766771,my-time,,,att1left,,,,,62,62,left,714,"[""Bad words""]","[""最悪""]","{""score"":0,""parcel"":""first"",""corResp"":""left"",""condition"":""Middle people/Bad words,Poor people/Good words"",""block"":3}",,,
18edc65ce4defa5aa7f9fae779d22655fd766771,my-time,,,instructions,,,,,63,63,space,1197,"[""dummy""]","["" ""]","{""blockStart"":true,""condition"":""instructions"",""score"":0,""block"":0}",,,
18edc65ce4defa5aa7f9fae779d22655fd766771,my-time,,,cat1right,,,,,64,64,right,4473,"[""Poor people""]","[""poverty3.jpg""]","{""score"":1,""parcel"":""first"",""corResp"":""right"",""condition"":""Middle people/Bad words,Poor people/Good words"",""block"":4}",,,
18edc65ce4defa5aa7f9fae779d22655fd766771,my-time,,,att1left,,,,,65,65,left,831,"[""Bad words""]","[""汚い""]","{""score"":0,""parcel"":""first"",""corResp"":""left"",""condition"":""Middle people/Bad words,Poor people/Good words"",""block"":4}",,,
18edc65ce4defa5aa7f9fae779d22655fd766771,my-time,,,cat2left,,,,,66,66,left,1389,"[""Middle people""]","[""rich3.jpg""]","{""score"":1,""parcel"":""first"",""corResp"":""left"",""condition"":""Middle people/Bad words,Poor people/Good words"",""block"":4}",,,
18edc65ce4defa5aa7f9fae779d22655fd766771,my-time,,,att2right,,,,,67,67,right,5232,"[""Good words""]","[""平和""]","{""score"":0,""parcel"":""first"",""corResp"":""right"",""condition"":""Middle people/Bad words,Poor people/Good words"",""block"":4}",,,
18edc65ce4defa5aa7f9fae779d22655fd766771,my-time,,,cat2left,,,,,68,68,left,1534,"[""Middle people""]","[""rich2.jpg""]","{""score"":0,""parcel"":""first"",""corResp"":""left"",""condition"":""Middle people/Bad words,Poor people/Good words"",""block"":4}",,,
18edc65ce4defa5aa7f9fae779d22655fd766771,my-time,,,att2right,,,,,69,69,right,2647,"[""Good words""]","[""楽しい""]","{""score"":0,""parcel"":""first"",""corResp"":""right"",""condition"":""Middle people/Bad words,Poor people/Good words"",""block"":4}",,,
18edc65ce4defa5aa7f9fae779d22655fd766771,my-time,,,cat1right,,,,,70,70,right,1575,"[""Poor people""]","[""poverty1.jpg""]","{""score"":1,""parcel"":""first"",""corResp"":""right"",""condition"":""Middle people/Bad words,Poor people/Good words"",""block"":4}",,,
18edc65ce4defa5aa7f9fae779d22655fd766771,my-time,,,att1left,,,,,71,71,left,768,"[""Bad words""]","[""汚い""]","{""score"":0,""parcel"":""first"",""corResp"":""left"",""condition"":""Middle people/Bad words,Poor people/Good words"",""block"":4}",,,
18edc65ce4defa5aa7f9fae779d22655fd766771,my-time,,,cat2left,,,,,72,72,left,1982,"[""Middle people""]","[""rich1.jpg""]","{""score"":0,""parcel"":""first"",""corResp"":""left"",""condition"":""Middle people/Bad words,Poor people/Good words"",""block"":4}",,,
18edc65ce4defa5aa7f9fae779d22655fd766771,my-time,,,att1left,,,,,73,73,left,1355,"[""Bad words""]","[""ひどい""]","{""score"":0,""parcel"":""first"",""corResp"":""left"",""condition"":""Middle people/Bad words,Poor people/Good words"",""block"":4}",,,
18edc65ce4defa5aa7f9fae779d22655fd766771,my-time,,,cat1right,,,,,74,74,right,1295,"[""Poor people""]","[""poverty6.jpg""]","{""score"":1,""parcel"":""first"",""corResp"":""right"",""condition"":""Middle people/Bad words,Poor people/Good words"",""block"":4}",,,
18edc65ce4defa5aa7f9fae779d22655fd766771,my-time,,,att2right,,,,,75,75,right,1446,"[""Good words""]","[""楽しい""]","{""score"":0,""parcel"":""first"",""corResp"":""right"",""condition"":""Middle people/Bad words,Poor people/Good words"",""block"":4}",,,
18edc65ce4defa5aa7f9fae779d22655fd766771,my-time,,,cat1right,,,,,76,76,right,1446,"[""Poor people""]","[""poverty3.jpg""]","{""score"":1,""parcel"":""first"",""corResp"":""right"",""condition"":""Middle people/Bad words,Poor people/Good words"",""block"":4}",,,
18edc65ce4defa5aa7f9fae779d22655fd766771,my-time,,,att2right,,,,,77,77,right,2639,"[""Good words""]","[""素晴らしい""]","{""score"":0,""parcel"":""first"",""corResp"":""right"",""condition"":""Middle people/Bad words,Poor people/Good words"",""block"":4}",,,
18edc65ce4defa5aa7f9fae779d22655fd766771,my-time,,,cat2left,,,,,78,78,left,1091,"[""Middle people""]","[""rich4.jpg""]","{""score"":0,""parcel"":""first"",""corResp"":""left"",""condition"":""Middle people/Bad words,Poor people/Good words"",""block"":4}",,,
18edc65ce4defa5aa7f9fae779d22655fd766771,my-time,,,att1left,,,,,79,79,left,968,"[""Bad words""]","[""ひどい""]","{""score"":0,""parcel"":""first"",""corResp"":""left"",""condition"":""Middle people/Bad words,Poor people/Good words"",""block"":4}",,,
18edc65ce4defa5aa7f9fae779d22655fd766771,my-time,,,cat2left,,,,,80,80,left,2155,"[""Middle people""]","[""rich1.jpg""]","{""score"":0,""parcel"":""first"",""corResp"":""left"",""condition"":""Middle people/Bad words,Poor people/Good words"",""block"":4}",,,
18edc65ce4defa5aa7f9fae779d22655fd766771,my-time,,,att1left,,,,,81,81,left,681,"[""Bad words""]","[""悪""]","{""score"":0,""parcel"":""first"",""corResp"":""left"",""condition"":""Middle people/Bad words,Poor people/Good words"",""block"":4}",,,
18edc65ce4defa5aa7f9fae779d22655fd766771,my-time,,,cat1right,,,,,82,82,right,13,"[""Poor people""]","[""poverty6.jpg""]","{""score"":0,""parcel"":""first"",""corResp"":""right"",""condition"":""Middle people/Bad words,Poor people/Good words"",""block"":4}",,,
18edc65ce4defa5aa7f9fae779d22655fd766771,my-time,,,att2right,,,,,83,83,right,5485,"[""Good words""]","[""すばらしい""]","{""score"":0,""parcel"":""first"",""corResp"":""right"",""condition"":""Middle people/Bad words,Poor people/Good words"",""block"":4}",,,
18edc65ce4defa5aa7f9fae779d22655fd766771,my-time,,,cat2left,,,,,84,84,left,884,"[""Middle people""]","[""rich3.jpg""]","{""score"":0,""parcel"":""first"",""corResp"":""left"",""condition"":""Middle people/Bad words,Poor people/Good words"",""block"":4}",,,
18edc65ce4defa5aa7f9fae779d22655fd766771,my-time,,,att1left,,,,,85,85,left,1481,"[""Bad words""]","[""失敗""]","{""score"":0,""parcel"":""first"",""corResp"":""left"",""condition"":""Middle people/Bad words,Poor people/Good words"",""block"":4}",,,
18edc65ce4defa5aa7f9fae779d22655fd766771,my-time,,,cat1right,,,,,86,86,right,1302,"[""Poor people""]","[""poverty2.jpg""]","{""score"":0,""parcel"":""first"",""corResp"":""right"",""condition"":""Middle people/Bad words,Poor people/Good words"",""block"":4}",,,
18edc65ce4defa5aa7f9fae779d22655fd766771,my-time,,,att2right,,,,,87,87,right,3218,"[""Good words""]","[""平和""]","{""score"":0,""parcel"":""first"",""corResp"":""right"",""condition"":""Middle people/Bad words,Poor people/Good words"",""block"":4}",,,
18edc65ce4defa5aa7f9fae779d22655fd766771,my-time,,,cat2left,,,,,88,88,left,3122,"[""Middle people""]","[""rich6.jpg""]","{""score"":0,""parcel"":""first"",""corResp"":""left"",""condition"":""Middle people/Bad words,Poor people/Good words"",""block"":4}",,,
18edc65ce4defa5aa7f9fae779d22655fd766771,my-time,,,att2right,,,,,89,89,right,2440,"[""Good words""]","[""栄光""]","{""score"":0,""parcel"":""first"",""corResp"":""right"",""condition"":""Middle people/Bad words,Poor people/Good words"",""block"":4}",,,
18edc65ce4defa5aa7f9fae779d22655fd766771,my-time,,,cat1right,,,,,90,90,right,1539,"[""Poor people""]","[""poverty4.jpg""]","{""score"":0,""parcel"":""first"",""corResp"":""right"",""condition"":""Middle people/Bad words,Poor people/Good words"",""block"":4}",,,
18edc65ce4defa5aa7f9fae779d22655fd766771,my-time,,,att1left,,,,,91,91,left,885,"[""Bad words""]","[""最悪""]","{""score"":0,""parcel"":""first"",""corResp"":""left"",""condition"":""Middle people/Bad words,Poor people/Good words"",""block"":4}",,,
18edc65ce4defa5aa7f9fae779d22655fd766771,my-time,,,cat2left,,,,,92,92,left,6298,"[""Middle people""]","[""rich2.jpg""]","{""score"":0,""parcel"":""first"",""corResp"":""left"",""condition"":""Middle people/Bad words,Poor people/Good words"",""block"":4}",,,
18edc65ce4defa5aa7f9fae779d22655fd766771,my-time,,,att2right,,,,,93,93,right,3313,"[""Good words""]","[""愛""]","{""score"":0,""parcel"":""first"",""corResp"":""right"",""condition"":""Middle people/Bad words,Poor people/Good words"",""block"":4}",,,
18edc65ce4defa5aa7f9fae779d22655fd766771,my-time,,,cat1right,,,,,94,94,right,1482,"[""Poor people""]","[""poverty1.jpg""]","{""score"":0,""parcel"":""first"",""corResp"":""right"",""condition"":""Middle people/Bad words,Poor people/Good words"",""block"":4}",,,
18edc65ce4defa5aa7f9fae779d22655fd766771,my-time,,,att1left,,,,,95,95,left,829,"[""Bad words""]","[""傷""]","{""score"":0,""parcel"":""first"",""corResp"":""left"",""condition"":""Middle people/Bad words,Poor people/Good words"",""block"":4}",,,
18edc65ce4defa5aa7f9fae779d22655fd766771,my-time,,,cat2left,,,,,96,96,left,1471,"[""Middle people""]","[""rich5.jpg""]","{""score"":1,""parcel"":""first"",""corResp"":""left"",""condition"":""Middle people/Bad words,Poor people/Good words"",""block"":4}",,,
18edc65ce4defa5aa7f9fae779d22655fd766771,my-time,,,att2right,,,,,97,97,right,4961,"[""Good words""]","[""笑顔""]","{""score"":1,""parcel"":""first"",""corResp"":""right"",""condition"":""Middle people/Bad words,Poor people/Good words"",""block"":4}",,,
18edc65ce4defa5aa7f9fae779d22655fd766771,my-time,,,cat1right,,,,,98,98,right,1620,"[""Poor people""]","[""poverty5.jpg""]","{""score"":0,""parcel"":""first"",""corResp"":""right"",""condition"":""Middle people/Bad words,Poor people/Good words"",""block"":4}",,,
18edc65ce4defa5aa7f9fae779d22655fd766771,my-time,,,att1left,,,,,99,99,left,1749,"[""Bad words""]","[""苦しみ""]","{""score"":0,""parcel"":""first"",""corResp"":""left"",""condition"":""Middle people/Bad words,Poor people/Good words"",""block"":4}",,,
18edc65ce4defa5aa7f9fae779d22655fd766771,my-time,,,cat2left,,,,,100,100,left,3052,"[""Middle people""]","[""rich6.jpg""]","{""score"":0,""parcel"":""first"",""corResp"":""left"",""condition"":""Middle people/Bad words,Poor people/Good words"",""block"":4}",,,
18edc65ce4defa5aa7f9fae779d22655fd766771,my-time,,,att2right,,,,,101,101,right,1368,"[""Good words""]","[""すばらしい""]","{""score"":0,""parcel"":""first"",""corResp"":""right"",""condition"":""Middle people/Bad words,Poor people/Good words"",""block"":4}",,,
18edc65ce4defa5aa7f9fae779d22655fd766771,my-time,,,cat1right,,,,,102,102,right,1223,"[""Poor people""]","[""poverty2.jpg""]","{""score"":0,""parcel"":""first"",""corResp"":""right"",""condition"":""Middle people/Bad words,Poor people/Good words"",""block"":4}",,,
18edc65ce4defa5aa7f9fae779d22655fd766771,my-time,,,att1left,,,,,103,103,left,1799,"[""Bad words""]","[""最悪""]","{""score"":0,""parcel"":""first"",""corResp"":""left"",""condition"":""Middle people/Bad words,Poor people/Good words"",""block"":4}",,,
18edc65ce4defa5aa7f9fae779d22655fd766771,my-time,,,instructions,,,,,104,104,space,13304,"[""dummy""]","["" ""]","{""blockStart"":true,""condition"":""instructions"",""score"":0,""block"":0}",,,
18edc65ce4defa5aa7f9fae779d22655fd766771,my-time,,,cat2right,,,,,105,105,right,1114,"[""Middle people""]","[""rich3.jpg""]","{""score"":0,""parcel"":""first"",""corResp"":""right"",""condition"":""Poor people,Middle people"",""block"":5}",,,
18edc65ce4defa5aa7f9fae779d22655fd766771,my-time,,,cat2right,,,,,106,106,right,1311,"[""Middle people""]","[""rich2.jpg""]","{""score"":0,""parcel"":""first"",""corResp"":""right"",""condition"":""Poor people,Middle people"",""block"":5}",,,
18edc65ce4defa5aa7f9fae779d22655fd766771,my-time,,,cat1left,,,,,107,107,left,564,"[""Poor people""]","[""poverty1.jpg""]","{""score"":0,""parcel"":""first"",""corResp"":""left"",""condition"":""Poor people,Middle people"",""block"":5}",,,
18edc65ce4defa5aa7f9fae779d22655fd766771,my-time,,,cat1left,,,,,108,108,left,467,"[""Poor people""]","[""poverty6.jpg""]","{""score"":0,""parcel"":""first"",""corResp"":""left"",""condition"":""Poor people,Middle people"",""block"":5}",,,
18edc65ce4defa5aa7f9fae779d22655fd766771,my-time,,,cat2right,,,,,109,109,right,768,"[""Middle people""]","[""rich1.jpg""]","{""score"":1,""parcel"":""first"",""corResp"":""right"",""condition"":""Poor people,Middle people"",""block"":5}",,,
18edc65ce4defa5aa7f9fae779d22655fd766771,my-time,,,cat1left,,,,,110,110,left,1264,"[""Poor people""]","[""poverty5.jpg""]","{""score"":1,""parcel"":""first"",""corResp"":""left"",""condition"":""Poor people,Middle people"",""block"":5}",,,
18edc65ce4defa5aa7f9fae779d22655fd766771,my-time,,,cat1left,,,,,111,111,left,846,"[""Poor people""]","[""poverty4.jpg""]","{""score"":0,""parcel"":""first"",""corResp"":""left"",""condition"":""Poor people,Middle people"",""block"":5}",,,
18edc65ce4defa5aa7f9fae779d22655fd766771,my-time,,,cat2right,,,,,112,112,right,696,"[""Middle people""]","[""rich5.jpg""]","{""score"":0,""parcel"":""first"",""corResp"":""right"",""condition"":""Poor people,Middle people"",""block"":5}",,,
18edc65ce4defa5aa7f9fae779d22655fd766771,my-time,,,cat1left,,,,,113,113,left,750,"[""Poor people""]","[""poverty3.jpg""]","{""score"":0,""parcel"":""first"",""corResp"":""left"",""condition"":""Poor people,Middle people"",""block"":5}",,,
18edc65ce4defa5aa7f9fae779d22655fd766771,my-time,,,cat1left,,,,,114,114,left,626,"[""Poor people""]","[""poverty5.jpg""]","{""score"":0,""parcel"":""first"",""corResp"":""left"",""condition"":""Poor people,Middle people"",""block"":5}",,,
18edc65ce4defa5aa7f9fae779d22655fd766771,my-time,,,cat2right,,,,,115,115,right,688,"[""Middle people""]","[""rich4.jpg""]","{""score"":0,""parcel"":""first"",""corResp"":""right"",""condition"":""Poor people,Middle people"",""block"":5}",,,
18edc65ce4defa5aa7f9fae779d22655fd766771,my-time,,,cat2right,,,,,116,116,right,482,"[""Middle people""]","[""rich2.jpg""]","{""score"":0,""parcel"":""first"",""corResp"":""right"",""condition"":""Poor people,Middle people"",""block"":5}",,,
18edc65ce4defa5aa7f9fae779d22655fd766771,my-time,,,cat2right,,,,,117,117,right,526,"[""Middle people""]","[""rich4.jpg""]","{""score"":0,""parcel"":""first"",""corResp"":""right"",""condition"":""Poor people,Middle people"",""block"":5}",,,
18edc65ce4defa5aa7f9fae779d22655fd766771,my-time,,,cat1left,,,,,118,118,left,665,"[""Poor people""]","[""poverty4.jpg""]","{""score"":0,""parcel"":""first"",""corResp"":""left"",""condition"":""Poor people,Middle people"",""block"":5}",,,
18edc65ce4defa5aa7f9fae779d22655fd766771,my-time,,,cat1left,,,,,119,119,left,598,"[""Poor people""]","[""poverty2.jpg""]","{""score"":0,""parcel"":""first"",""corResp"":""left"",""condition"":""Poor people,Middle people"",""block"":5}",,,
18edc65ce4defa5aa7f9fae779d22655fd766771,my-time,,,cat2right,,,,,120,120,right,673,"[""Middle people""]","[""rich3.jpg""]","{""score"":0,""parcel"":""first"",""corResp"":""right"",""condition"":""Poor people,Middle people"",""block"":5}",,,
18edc65ce4defa5aa7f9fae779d22655fd766771,my-time,,,cat2right,,,,,121,121,right,814,"[""Middle people""]","[""rich1.jpg""]","{""score"":1,""parcel"":""first"",""corResp"":""right"",""condition"":""Poor people,Middle people"",""block"":5}",,,
18edc65ce4defa5aa7f9fae779d22655fd766771,my-time,,,cat1left,,,,,122,122,left,795,"[""Poor people""]","[""poverty1.jpg""]","{""score"":0,""parcel"":""first"",""corResp"":""left"",""condition"":""Poor people,Middle people"",""block"":5}",,,
18edc65ce4defa5aa7f9fae779d22655fd766771,my-time,,,cat2right,,,,,123,123,right,721,"[""Middle people""]","[""rich6.jpg""]","{""score"":0,""parcel"":""first"",""corResp"":""right"",""condition"":""Poor people,Middle people"",""block"":5}",,,
18edc65ce4defa5aa7f9fae779d22655fd766771,my-time,,,cat1left,,,,,124,124,left,1120,"[""Poor people""]","[""poverty6.jpg""]","{""score"":0,""parcel"":""first"",""corResp"":""left"",""condition"":""Poor people,Middle people"",""block"":5}",,,
18edc65ce4defa5aa7f9fae779d22655fd766771,my-time,,,cat1left,,,,,125,125,left,1935,"[""Poor people""]","[""poverty3.jpg""]","{""score"":0,""parcel"":""first"",""corResp"":""left"",""condition"":""Poor people,Middle people"",""block"":5}",,,
18edc65ce4defa5aa7f9fae779d22655fd766771,my-time,,,cat2right,,,,,126,126,right,1190,"[""Middle people""]","[""rich5.jpg""]","{""score"":0,""parcel"":""first"",""corResp"":""right"",""condition"":""Poor people,Middle people"",""block"":5}",,,
18edc65ce4defa5aa7f9fae779d22655fd766771,my-time,,,cat1left,,,,,127,127,left,1936,"[""Poor people""]","[""poverty2.jpg""]","{""score"":1,""parcel"":""first"",""corResp"":""left"",""condition"":""Poor people,Middle people"",""block"":5}",,,
18edc65ce4defa5aa7f9fae779d22655fd766771,my-time,,,cat2right,,,,,128,128,right,1827,"[""Middle people""]","[""rich1.jpg""]","{""score"":0,""parcel"":""first"",""corResp"":""right"",""condition"":""Poor people,Middle people"",""block"":5}",,,
18edc65ce4defa5aa7f9fae779d22655fd766771,my-time,,,cat2right,,,,,129,129,right,1346,"[""Middle people""]","[""rich6.jpg""]","{""score"":1,""parcel"":""first"",""corResp"":""right"",""condition"":""Poor people,Middle people"",""block"":5}",,,
18edc65ce4defa5aa7f9fae779d22655fd766771,my-time,,,cat1left,,,,,130,130,left,1444,"[""Poor people""]","[""poverty1.jpg""]","{""score"":0,""parcel"":""first"",""corResp"":""left"",""condition"":""Poor people,Middle people"",""block"":5}",,,
18edc65ce4defa5aa7f9fae779d22655fd766771,my-time,,,cat1left,,,,,131,131,left,832,"[""Poor people""]","[""poverty5.jpg""]","{""score"":0,""parcel"":""first"",""corResp"":""left"",""condition"":""Poor people,Middle people"",""block"":5}",,,
18edc65ce4defa5aa7f9fae779d22655fd766771,my-time,,,cat2right,,,,,132,132,right,712,"[""Middle people""]","[""rich2.jpg""]","{""score"":0,""parcel"":""first"",""corResp"":""right"",""condition"":""Poor people,Middle people"",""block"":5}",,,
18edc65ce4defa5aa7f9fae779d22655fd766771,my-time,,,instructions,,,,,133,133,space,4627,"[""dummy""]","["" ""]","{""blockStart"":true,""condition"":""instructions"",""score"":0,""block"":0}",,,
18edc65ce4defa5aa7f9fae779d22655fd766771,my-time,,,cat2right,,,,,134,134,right,1044,"[""Middle people""]","[""rich3.jpg""]","{""score"":0,""parcel"":""first"",""corResp"":""right"",""condition"":""Poor people/Bad words,Middle people/Good words"",""block"":6}",,,
18edc65ce4defa5aa7f9fae779d22655fd766771,my-time,,,att1left,,,,,135,135,left,879,"[""Bad words""]","[""苦しみ""]","{""score"":0,""parcel"":""first"",""corResp"":""left"",""condition"":""Poor people/Bad words,Middle people/Good words"",""block"":6}",,,
18edc65ce4defa5aa7f9fae779d22655fd766771,my-time,,,cat1left,,,,,136,136,left,728,"[""Poor people""]","[""poverty3.jpg""]","{""score"":0,""parcel"":""first"",""corResp"":""left"",""condition"":""Poor people/Bad words,Middle people/Good words"",""block"":6}",,,
18edc65ce4defa5aa7f9fae779d22655fd766771,my-time,,,att2right,,,,,137,137,right,664,"[""Good words""]","[""栄光""]","{""score"":0,""parcel"":""first"",""corResp"":""right"",""condition"":""Poor people/Bad words,Middle people/Good words"",""block"":6}",,,
18edc65ce4defa5aa7f9fae779d22655fd766771,my-time,,,cat2right,,,,,138,138,right,700,"[""Middle people""]","[""rich5.jpg""]","{""score"":0,""parcel"":""first"",""corResp"":""right"",""condition"":""Poor people/Bad words,Middle people/Good words"",""block"":6}",,,
18edc65ce4defa5aa7f9fae779d22655fd766771,my-time,,,att2right,,,,,139,139,right,574,"[""Good words""]","[""楽しい""]","{""score"":0,""parcel"":""first"",""corResp"":""right"",""condition"":""Poor people/Bad words,Middle people/Good words"",""block"":6}",,,
18edc65ce4defa5aa7f9fae779d22655fd766771,my-time,,,cat1left,,,,,140,140,left,624,"[""Poor people""]","[""poverty4.jpg""]","{""score"":0,""parcel"":""first"",""corResp"":""left"",""condition"":""Poor people/Bad words,Middle people/Good words"",""block"":6}",,,
18edc65ce4defa5aa7f9fae779d22655fd766771,my-time,,,att1left,,,,,141,141,left,1646,"[""Bad words""]","[""ひどい""]","{""score"":1,""parcel"":""first"",""corResp"":""left"",""condition"":""Poor people/Bad words,Middle people/Good words"",""block"":6}",,,
18edc65ce4defa5aa7f9fae779d22655fd766771,my-time,,,cat1left,,,,,142,142,left,1442,"[""Poor people""]","[""poverty6.jpg""]","{""score"":0,""parcel"":""first"",""corResp"":""left"",""condition"":""Poor people/Bad words,Middle people/Good words"",""block"":6}",,,
18edc65ce4defa5aa7f9fae779d22655fd766771,my-time,,,att1left,,,,,143,143,left,920,"[""Bad words""]","[""汚い""]","{""score"":1,""parcel"":""first"",""corResp"":""left"",""condition"":""Poor people/Bad words,Middle people/Good words"",""block"":6}",,,
18edc65ce4defa5aa7f9fae779d22655fd766771,my-time,,,cat2right,,,,,144,144,right,681,"[""Middle people""]","[""rich4.jpg""]","{""score"":0,""parcel"":""first"",""corResp"":""right"",""condition"":""Poor people/Bad words,Middle people/Good words"",""block"":6}",,,
18edc65ce4defa5aa7f9fae779d22655fd766771,my-time,,,att2right,,,,,145,145,right,1203,"[""Good words""]","[""平和""]","{""score"":0,""parcel"":""first"",""corResp"":""right"",""condition"":""Poor people/Bad words,Middle people/Good words"",""block"":6}",,,
18edc65ce4defa5aa7f9fae779d22655fd766771,my-time,,,cat1left,,,,,146,146,left,506,"[""Poor people""]","[""poverty3.jpg""]","{""score"":0,""parcel"":""first"",""corResp"":""left"",""condition"":""Poor people/Bad words,Middle people/Good words"",""block"":6}",,,
18edc65ce4defa5aa7f9fae779d22655fd766771,my-time,,,att1left,,,,,147,147,left,1670,"[""Bad words""]","[""失敗""]","{""score"":0,""parcel"":""first"",""corResp"":""left"",""condition"":""Poor people/Bad words,Middle people/Good words"",""block"":6}",,,
18edc65ce4defa5aa7f9fae779d22655fd766771,my-time,,,cat2right,,,,,148,148,right,1090,"[""Middle people""]","[""rich5.jpg""]","{""score"":0,""parcel"":""first"",""corResp"":""right"",""condition"":""Poor people/Bad words,Middle people/Good words"",""block"":6}",,,
18edc65ce4defa5aa7f9fae779d22655fd766771,my-time,,,att2right,,,,,149,149,right,819,"[""Good words""]","[""素晴らしい""]","{""score"":0,""parcel"":""first"",""corResp"":""right"",""condition"":""Poor people/Bad words,Middle people/Good words"",""block"":6}",,,
18edc65ce4defa5aa7f9fae779d22655fd766771,my-time,,,cat2right,,,,,150,150,right,1258,"[""Middle people""]","[""rich6.jpg""]","{""score"":0,""parcel"":""first"",""corResp"":""right"",""condition"":""Poor people/Bad words,Middle people/Good words"",""block"":6}",,,
18edc65ce4defa5aa7f9fae779d22655fd766771,my-time,,,att2right,,,,,151,151,right,629,"[""Good words""]","[""笑顔""]","{""score"":0,""parcel"":""first"",""corResp"":""right"",""condition"":""Poor people/Bad words,Middle people/Good words"",""block"":6}",,,
18edc65ce4defa5aa7f9fae779d22655fd766771,my-time,,,cat1left,,,,,152,152,left,677,"[""Poor people""]","[""poverty5.jpg""]","{""score"":0,""parcel"":""first"",""corResp"":""left"",""condition"":""Poor people/Bad words,Middle people/Good words"",""block"":6}",,,
18edc65ce4defa5aa7f9fae779d22655fd766771,my-time,,,att1left,,,,,153,153,left,680,"[""Bad words""]","[""悪""]","{""score"":0,""parcel"":""first"",""corResp"":""left"",""condition"":""Poor people/Bad words,Middle people/Good words"",""block"":6}",,,
18edc65ce4defa5aa7f9fae779d22655fd766771,my-time,,,instructions,,,,,154,154,space,2084,"[""dummy""]","["" ""]","{""blockStart"":true,""condition"":""instructions"",""score"":0,""block"":0}",,,
18edc65ce4defa5aa7f9fae779d22655fd766771,my-time,,,cat2right,,,,,155,155,right,805,"[""Middle people""]","[""rich4.jpg""]","{""score"":0,""parcel"":""first"",""corResp"":""right"",""condition"":""Poor people/Bad words,Middle people/Good words"",""block"":7}",,,
18edc65ce4defa5aa7f9fae779d22655fd766771,my-time,,,att1left,,,,,156,156,left,1322,"[""Bad words""]","[""傷""]","{""score"":0,""parcel"":""first"",""corResp"":""left"",""condition"":""Poor people/Bad words,Middle people/Good words"",""block"":7}",,,
18edc65ce4defa5aa7f9fae779d22655fd766771,my-time,,,cat1left,,,,,157,157,left,1586,"[""Poor people""]","[""poverty2.jpg""]","{""score"":0,""parcel"":""first"",""corResp"":""left"",""condition"":""Poor people/Bad words,Middle people/Good words"",""block"":7}",,,
18edc65ce4defa5aa7f9fae779d22655fd766771,my-time,,,att2right,,,,,158,158,right,590,"[""Good words""]","[""愛""]","{""score"":0,""parcel"":""first"",""corResp"":""right"",""condition"":""Poor people/Bad words,Middle people/Good words"",""block"":7}",,,
18edc65ce4defa5aa7f9fae779d22655fd766771,my-time,,,cat2right,,,,,159,159,right,1473,"[""Middle people""]","[""rich3.jpg""]","{""score"":0,""parcel"":""first"",""corResp"":""right"",""condition"":""Poor people/Bad words,Middle people/Good words"",""block"":7}",,,
18edc65ce4defa5aa7f9fae779d22655fd766771,my-time,,,att2right,,,,,160,160,right,765,"[""Good words""]","[""楽しい""]","{""score"":0,""parcel"":""first"",""corResp"":""right"",""condition"":""Poor people/Bad words,Middle people/Good words"",""block"":7}",,,
18edc65ce4defa5aa7f9fae779d22655fd766771,my-time,,,cat1left,,,,,161,161,left,535,"[""Poor people""]","[""poverty1.jpg""]","{""score"":0,""parcel"":""first"",""corResp"":""left"",""condition"":""Poor people/Bad words,Middle people/Good words"",""block"":7}",,,
18edc65ce4defa5aa7f9fae779d22655fd766771,my-time,,,att1left,,,,,162,162,left,1469,"[""Bad words""]","[""ひどい""]","{""score"":1,""parcel"":""first"",""corResp"":""left"",""condition"":""Poor people/Bad words,Middle people/Good words"",""block"":7}",,,
18edc65ce4defa5aa7f9fae779d22655fd766771,my-time,,,cat1left,,,,,163,163,left,706,"[""Poor people""]","[""poverty4.jpg""]","{""score"":0,""parcel"":""first"",""corResp"":""left"",""condition"":""Poor people/Bad words,Middle people/Good words"",""block"":7}",,,
18edc65ce4defa5aa7f9fae779d22655fd766771,my-time,,,att1left,,,,,164,164,left,690,"[""Bad words""]","[""傷""]","{""score"":0,""parcel"":""first"",""corResp"":""left"",""condition"":""Poor people/Bad words,Middle people/Good words"",""block"":7}",,,
18edc65ce4defa5aa7f9fae779d22655fd766771,my-time,,,cat2right,,,,,165,165,right,695,"[""Middle people""]","[""rich1.jpg""]","{""score"":0,""parcel"":""first"",""corResp"":""right"",""condition"":""Poor people/Bad words,Middle people/Good words"",""block"":7}",,,
18edc65ce4defa5aa7f9fae779d22655fd766771,my-time,,,att2right,,,,,166,166,right,971,"[""Good words""]","[""素晴らしい""]","{""score"":0,""parcel"":""first"",""corResp"":""right"",""condition"":""Poor people/Bad words,Middle people/Good words"",""block"":7}",,,
18edc65ce4defa5aa7f9fae779d22655fd766771,my-time,,,cat1left,,,,,167,167,left,734,"[""Poor people""]","[""poverty6.jpg""]","{""score"":0,""parcel"":""first"",""corResp"":""left"",""condition"":""Poor people/Bad words,Middle people/Good words"",""block"":7}",,,
18edc65ce4defa5aa7f9fae779d22655fd766771,my-time,,,att2right,,,,,168,168,right,724,"[""Good words""]","[""すばらしい""]","{""score"":0,""parcel"":""first"",""corResp"":""right"",""condition"":""Poor people/Bad words,Middle people/Good words"",""block"":7}",,,
18edc65ce4defa5aa7f9fae779d22655fd766771,my-time,,,cat2right,,,,,169,169,right,900,"[""Middle people""]","[""rich2.jpg""]","{""score"":0,""parcel"":""first"",""corResp"":""right"",""condition"":""Poor people/Bad words,Middle people/Good words"",""block"":7}",,,
18edc65ce4defa5aa7f9fae779d22655fd766771,my-time,,,att1left,,,,,170,170,left,734,"[""Bad words""]","[""悪""]","{""score"":0,""parcel"":""first"",""corResp"":""left"",""condition"":""Poor people/Bad words,Middle people/Good words"",""block"":7}",,,
18edc65ce4defa5aa7f9fae779d22655fd766771,my-time,,,cat2right,,,,,171,171,right,893,"[""Middle people""]","[""rich2.jpg""]","{""score"":0,""parcel"":""first"",""corResp"":""right"",""condition"":""Poor people/Bad words,Middle people/Good words"",""block"":7}",,,
18edc65ce4defa5aa7f9fae779d22655fd766771,my-time,,,att1left,,,,,172,172,left,746,"[""Bad words""]","[""苦しみ""]","{""score"":0,""parcel"":""first"",""corResp"":""left"",""condition"":""Poor people/Bad words,Middle people/Good words"",""block"":7}",,,
18edc65ce4defa5aa7f9fae779d22655fd766771,my-time,,,cat1left,,,,,173,173,left,634,"[""Poor people""]","[""poverty1.jpg""]","{""score"":0,""parcel"":""first"",""corResp"":""left"",""condition"":""Poor people/Bad words,Middle people/Good words"",""block"":7}",,,
18edc65ce4defa5aa7f9fae779d22655fd766771,my-time,,,att2right,,,,,174,174,right,760,"[""Good words""]","[""楽しい""]","{""score"":0,""parcel"":""first"",""corResp"":""right"",""condition"":""Poor people/Bad words,Middle people/Good words"",""block"":7}",,,
18edc65ce4defa5aa7f9fae779d22655fd766771,my-time,,,cat2right,,,,,175,175,right,813,"[""Middle people""]","[""rich5.jpg""]","{""score"":0,""parcel"":""first"",""corResp"":""right"",""condition"":""Poor people/Bad words,Middle people/Good words"",""block"":7}",,,
18edc65ce4defa5aa7f9fae779d22655fd766771,my-time,,,att2right,,,,,176,176,right,1254,"[""Good words""]","[""栄光""]","{""score"":1,""parcel"":""first"",""corResp"":""right"",""condition"":""Poor people/Bad words,Middle people/Good words"",""block"":7}",,,
18edc65ce4defa5aa7f9fae779d22655fd766771,my-time,,,cat1left,,,,,177,177,left,1182,"[""Poor people""]","[""poverty4.jpg""]","{""score"":0,""parcel"":""first"",""corResp"":""left"",""condition"":""Poor people/Bad words,Middle people/Good words"",""block"":7}",,,
18edc65ce4defa5aa7f9fae779d22655fd766771,my-time,,,att1left,,,,,178,178,left,1345,"[""Bad words""]","[""汚い""]","{""score"":1,""parcel"":""first"",""corResp"":""left"",""condition"":""Poor people/Bad words,Middle people/Good words"",""block"":7}",,,
18edc65ce4defa5aa7f9fae779d22655fd766771,my-time,,,cat1left,,,,,179,179,left,808,"[""Poor people""]","[""poverty5.jpg""]","{""score"":0,""parcel"":""first"",""corResp"":""left"",""condition"":""Poor people/Bad words,Middle people/Good words"",""block"":7}",,,
18edc65ce4defa5aa7f9fae779d22655fd766771,my-time,,,att2right,,,,,180,180,right,838,"[""Good words""]","[""平和""]","{""score"":0,""parcel"":""first"",""corResp"":""right"",""condition"":""Poor people/Bad words,Middle people/Good words"",""block"":7}",,,
18edc65ce4defa5aa7f9fae779d22655fd766771,my-time,,,cat2right,,,,,181,181,right,1214,"[""Middle people""]","[""rich4.jpg""]","{""score"":0,""parcel"":""first"",""corResp"":""right"",""condition"":""Poor people/Bad words,Middle people/Good words"",""block"":7}",,,
18edc65ce4defa5aa7f9fae779d22655fd766771,my-time,,,att1left,,,,,182,182,left,698,"[""Bad words""]","[""ひどい""]","{""score"":0,""parcel"":""first"",""corResp"":""left"",""condition"":""Poor people/Bad words,Middle people/Good words"",""block"":7}",,,
18edc65ce4defa5aa7f9fae779d22655fd766771,my-time,,,cat1left,,,,,183,183,left,676,"[""Poor people""]","[""poverty6.jpg""]","{""score"":0,""parcel"":""first"",""corResp"":""left"",""condition"":""Poor people/Bad words,Middle people/Good words"",""block"":7}",,,
18edc65ce4defa5aa7f9fae779d22655fd766771,my-time,,,att1left,,,,,184,184,left,1397,"[""Bad words""]","[""失敗""]","{""score"":0,""parcel"":""first"",""corResp"":""left"",""condition"":""Poor people/Bad words,Middle people/Good words"",""block"":7}",,,
18edc65ce4defa5aa7f9fae779d22655fd766771,my-time,,,cat2right,,,,,185,185,right,944,"[""Middle people""]","[""rich1.jpg""]","{""score"":0,""parcel"":""first"",""corResp"":""right"",""condition"":""Poor people/Bad words,Middle people/Good words"",""block"":7}",,,
18edc65ce4defa5aa7f9fae779d22655fd766771,my-time,,,att2right,,,,,186,186,right,747,"[""Good words""]","[""笑顔""]","{""score"":0,""parcel"":""first"",""corResp"":""right"",""condition"":""Poor people/Bad words,Middle people/Good words"",""block"":7}",,,
18edc65ce4defa5aa7f9fae779d22655fd766771,my-time,,,cat1left,,,,,187,187,left,1081,"[""Poor people""]","[""poverty3.jpg""]","{""score"":0,""parcel"":""first"",""corResp"":""left"",""condition"":""Poor people/Bad words,Middle people/Good words"",""block"":7}",,,
18edc65ce4defa5aa7f9fae779d22655fd766771,my-time,,,att1left,,,,,188,188,left,731,"[""Bad words""]","[""最悪""]","{""score"":0,""parcel"":""first"",""corResp"":""left"",""condition"":""Poor people/Bad words,Middle people/Good words"",""block"":7}",,,
18edc65ce4defa5aa7f9fae779d22655fd766771,my-time,,,cat2right,,,,,189,189,right,599,"[""Middle people""]","[""rich6.jpg""]","{""score"":0,""parcel"":""first"",""corResp"":""right"",""condition"":""Poor people/Bad words,Middle people/Good words"",""block"":7}",,,
18edc65ce4defa5aa7f9fae779d22655fd766771,my-time,,,att2right,,,,,190,190,right,518,"[""Good words""]","[""楽しい""]","{""score"":0,""parcel"":""first"",""corResp"":""right"",""condition"":""Poor people/Bad words,Middle people/Good words"",""block"":7}",,,
18edc65ce4defa5aa7f9fae779d22655fd766771,my-time,,,cat2right,,,,,191,191,right,1294,"[""Middle people""]","[""rich3.jpg""]","{""score"":1,""parcel"":""first"",""corResp"":""right"",""condition"":""Poor people/Bad words,Middle people/Good words"",""block"":7}",,,
18edc65ce4defa5aa7f9fae779d22655fd766771,my-time,,,att1left,,,,,192,192,left,698,"[""Bad words""]","[""ひどい""]","{""score"":0,""parcel"":""first"",""corResp"":""left"",""condition"":""Poor people/Bad words,Middle people/Good words"",""block"":7}",,,
18edc65ce4defa5aa7f9fae779d22655fd766771,my-time,,,cat1left,,,,,193,193,left,977,"[""Poor people""]","[""poverty2.jpg""]","{""score"":1,""parcel"":""first"",""corResp"":""left"",""condition"":""Poor people/Bad words,Middle people/Good words"",""block"":7}",,,
18edc65ce4defa5aa7f9fae779d22655fd766771,my-time,,,att2right,,,,,194,194,right,674,"[""Good words""]","[""愛""]","{""score"":0,""parcel"":""first"",""corResp"":""right"",""condition"":""Poor people/Bad words,Middle people/Good words"",""block"":7}",,,
18edc65ce4defa5aa7f9fae779d22655fd766771,my-time,,,instructions,,,,,195,195,space,3321,"[""Default""]","[""Press space to continue to the next task""]","{""blockStart"":true,""condition"":""instructions"",""score"":0,""block"":0}",,,
18edc65ce4defa5aa7f9fae779d22655fd766771,my-time,,,,,,,,,,,,,,,"Middle people/Bad words,Poor people/Good words",Your responses suggested a strong automatic preference for Middle people over Poor people.,-1.03
18edc65ce4defa5aa7f9fae779d22655fd766771,namelessTask,4,,,,,,,,,,,,,,,,
