f57fa71b901076d4b57ee6fda4ac7cc3ff7244ad,taskName,taskNumber,taskURL,name,response,serial,declined,submitLatency,log_serial,trial_id,responseHandle,latency,stimuli,media,data,block3Cond,feedback,d
f57fa71b901076d4b57ee6fda4ac7cc3ff7244ad,namelessTask,1,,,,,,,,,,,,,,,,
f57fa71b901076d4b57ee6fda4ac7cc3ff7244ad,my-quest,2,quest.js,,,,,,,,,,,,,,,
f57fa71b901076d4b57ee6fda4ac7cc3ff7244ad,my-quest,,,item8,NaN,0,,819.3000000007451,,,,,,,,,,
f57fa71b901076d4b57ee6fda4ac7cc3ff7244ad,my-quest,,,item3,NaN,2,,207.79999999701977,,,,,,,,,,
f57fa71b901076d4b57ee6fda4ac7cc3ff7244ad,my-quest,,,item10,NaN,3,,206.59999999776483,,,,,,,,,,
f57fa71b901076d4b57ee6fda4ac7cc3ff7244ad,my-quest,,,item2,NaN,4,,175.30000000074506,,,,,,,,,,
f57fa71b901076d4b57ee6fda4ac7cc3ff7244ad,my-quest,,,item1,NaN,5,,191.40000000223517,,,,,,,,,,
f57fa71b901076d4b57ee6fda4ac7cc3ff7244ad,my-quest,,,item7,NaN,7,,642.1999999992549,,,,,,,,,,
f57fa71b901076d4b57ee6fda4ac7cc3ff7244ad,my-quest,,,item6,NaN,9,,725.1999999992549,,,,,,,,,,
f57fa71b901076d4b57ee6fda4ac7cc3ff7244ad,my-time,3,time.js,,,,,,,,,,,,,,,
f57fa71b901076d4b57ee6fda4ac7cc3ff7244ad,my-time,,,instructions,,,,,0,0,space,6758,"[""dummy""]","["" ""]","{""blockStart"":true,""condition"":""instructions"",""score"":0,""block"":0}",,,
f57fa71b901076d4b57ee6fda4ac7cc3ff7244ad,my-time,,,cat1right,,,,,1,1,right,8525,"[""Poor people""]","[""poverty4.jpg""]","{""score"":0,""parcel"":""first"",""corResp"":""right"",""condition"":""Middle people,Poor people"",""block"":1}",,,
f57fa71b901076d4b57ee6fda4ac7cc3ff7244ad,my-time,,,cat2left,,,,,2,2,left,2769,"[""Middle people""]","[""rich3.jpg""]","{""score"":0,""parcel"":""first"",""corResp"":""left"",""condition"":""Middle people,Poor people"",""block"":1}",,,
f57fa71b901076d4b57ee6fda4ac7cc3ff7244ad,my-time,,,cat1right,,,,,3,3,right,1709,"[""Poor people""]","[""poverty2.jpg""]","{""score"":0,""parcel"":""first"",""corResp"":""right"",""condition"":""Middle people,Poor people"",""block"":1}",,,
f57fa71b901076d4b57ee6fda4ac7cc3ff7244ad,my-time,,,cat2left,,,,,4,4,left,1072,"[""Middle people""]","[""rich2.jpg""]","{""score"":0,""parcel"":""first"",""corResp"":""left"",""condition"":""Middle people,Poor people"",""block"":1}",,,
f57fa71b901076d4b57ee6fda4ac7cc3ff7244ad,my-time,,,cat2left,,,,,5,5,left,1613,"[""Middle people""]","[""rich6.jpg""]","{""score"":0,""parcel"":""first"",""corResp"":""left"",""condition"":""Middle people,Poor people"",""block"":1}",,,
f57fa71b901076d4b57ee6fda4ac7cc3ff7244ad,my-time,,,cat1right,,,,,6,6,right,664,"[""Poor people""]","[""poverty1.jpg""]","{""score"":0,""parcel"":""first"",""corResp"":""right"",""condition"":""Middle people,Poor people"",""block"":1}",,,
f57fa71b901076d4b57ee6fda4ac7cc3ff7244ad,my-time,,,cat1right,,,,,7,7,right,720,"[""Poor people""]","[""poverty3.jpg""]","{""score"":0,""parcel"":""first"",""corResp"":""right"",""condition"":""Middle people,Poor people"",""block"":1}",,,
f57fa71b901076d4b57ee6fda4ac7cc3ff7244ad,my-time,,,cat2left,,,,,8,8,left,793,"[""Middle people""]","[""rich5.jpg""]","{""score"":0,""parcel"":""first"",""corResp"":""left"",""condition"":""Middle people,Poor people"",""block"":1}",,,
f57fa71b901076d4b57ee6fda4ac7cc3ff7244ad,my-time,,,cat1right,,,,,9,9,right,770,"[""Poor people""]","[""poverty6.jpg""]","{""score"":0,""parcel"":""first"",""corResp"":""right"",""condition"":""Middle people,Poor people"",""block"":1}",,,
f57fa71b901076d4b57ee6fda4ac7cc3ff7244ad,my-time,,,cat2left,,,,,10,10,left,903,"[""Middle people""]","[""rich1.jpg""]","{""score"":0,""parcel"":""first"",""corResp"":""left"",""condition"":""Middle people,Poor people"",""block"":1}",,,
f57fa71b901076d4b57ee6fda4ac7cc3ff7244ad,my-time,,,cat2left,,,,,11,11,left,815,"[""Middle people""]","[""rich4.jpg""]","{""score"":0,""parcel"":""first"",""corResp"":""left"",""condition"":""Middle people,Poor people"",""block"":1}",,,
f57fa71b901076d4b57ee6fda4ac7cc3ff7244ad,my-time,,,cat1right,,,,,12,12,right,771,"[""Poor people""]","[""poverty5.jpg""]","{""score"":0,""parcel"":""first"",""corResp"":""right"",""condition"":""Middle people,Poor people"",""block"":1}",,,
f57fa71b901076d4b57ee6fda4ac7cc3ff7244ad,my-time,,,cat2left,,,,,13,13,left,1213,"[""Middle people""]","[""rich5.jpg""]","{""score"":0,""parcel"":""first"",""corResp"":""left"",""condition"":""Middle people,Poor people"",""block"":1}",,,
f57fa71b901076d4b57ee6fda4ac7cc3ff7244ad,my-time,,,cat1right,,,,,14,14,right,789,"[""Poor people""]","[""poverty1.jpg""]","{""score"":0,""parcel"":""first"",""corResp"":""right"",""condition"":""Middle people,Poor people"",""block"":1}",,,
f57fa71b901076d4b57ee6fda4ac7cc3ff7244ad,my-time,,,cat1right,,,,,15,15,right,1233,"[""Poor people""]","[""poverty4.jpg""]","{""score"":0,""parcel"":""first"",""corResp"":""right"",""condition"":""Middle people,Poor people"",""block"":1}",,,
f57fa71b901076d4b57ee6fda4ac7cc3ff7244ad,my-time,,,cat2left,,,,,16,16,left,554,"[""Middle people""]","[""rich4.jpg""]","{""score"":0,""parcel"":""first"",""corResp"":""left"",""condition"":""Middle people,Poor people"",""block"":1}",,,
f57fa71b901076d4b57ee6fda4ac7cc3ff7244ad,my-time,,,cat1right,,,,,17,17,right,809,"[""Poor people""]","[""poverty2.jpg""]","{""score"":0,""parcel"":""first"",""corResp"":""right"",""condition"":""Middle people,Poor people"",""block"":1}",,,
f57fa71b901076d4b57ee6fda4ac7cc3ff7244ad,my-time,,,cat1right,,,,,18,18,right,751,"[""Poor people""]","[""poverty3.jpg""]","{""score"":0,""parcel"":""first"",""corResp"":""right"",""condition"":""Middle people,Poor people"",""block"":1}",,,
f57fa71b901076d4b57ee6fda4ac7cc3ff7244ad,my-time,,,cat2left,,,,,19,19,left,785,"[""Middle people""]","[""rich6.jpg""]","{""score"":0,""parcel"":""first"",""corResp"":""left"",""condition"":""Middle people,Poor people"",""block"":1}",,,
f57fa71b901076d4b57ee6fda4ac7cc3ff7244ad,my-time,,,cat2left,,,,,20,20,left,878,"[""Middle people""]","[""rich3.jpg""]","{""score"":0,""parcel"":""first"",""corResp"":""left"",""condition"":""Middle people,Poor people"",""block"":1}",,,
f57fa71b901076d4b57ee6fda4ac7cc3ff7244ad,my-time,,,instructions,,,,,21,21,space,3608,"[""dummy""]","["" ""]","{""blockStart"":true,""condition"":""instructions"",""score"":0,""block"":0}",,,
f57fa71b901076d4b57ee6fda4ac7cc3ff7244ad,my-time,,,att1left,,,,,22,22,left,1234,"[""Bad words""]","[""ひどい""]","{""score"":0,""parcel"":""first"",""corResp"":""left"",""condition"":""Bad words,Good words"",""block"":2}",,,
f57fa71b901076d4b57ee6fda4ac7cc3ff7244ad,my-time,,,att2right,,,,,23,23,right,911,"[""Good words""]","[""楽しい""]","{""score"":0,""parcel"":""first"",""corResp"":""right"",""condition"":""Bad words,Good words"",""block"":2}",,,
f57fa71b901076d4b57ee6fda4ac7cc3ff7244ad,my-time,,,att1left,,,,,24,24,left,1149,"[""Bad words""]","[""失敗""]","{""score"":0,""parcel"":""first"",""corResp"":""left"",""condition"":""Bad words,Good words"",""block"":2}",,,
f57fa71b901076d4b57ee6fda4ac7cc3ff7244ad,my-time,,,att2right,,,,,25,25,right,1358,"[""Good words""]","[""栄光""]","{""score"":0,""parcel"":""first"",""corResp"":""right"",""condition"":""Bad words,Good words"",""block"":2}",,,
f57fa71b901076d4b57ee6fda4ac7cc3ff7244ad,my-time,,,att2right,,,,,26,26,right,679,"[""Good words""]","[""すばらしい""]","{""score"":0,""parcel"":""first"",""corResp"":""right"",""condition"":""Bad words,Good words"",""block"":2}",,,
f57fa71b901076d4b57ee6fda4ac7cc3ff7244ad,my-time,,,att1left,,,,,27,27,left,708,"[""Bad words""]","[""苦しみ""]","{""score"":0,""parcel"":""first"",""corResp"":""left"",""condition"":""Bad words,Good words"",""block"":2}",,,
f57fa71b901076d4b57ee6fda4ac7cc3ff7244ad,my-time,,,att2right,,,,,28,28,right,829,"[""Good words""]","[""笑顔""]","{""score"":0,""parcel"":""first"",""corResp"":""right"",""condition"":""Bad words,Good words"",""block"":2}",,,
f57fa71b901076d4b57ee6fda4ac7cc3ff7244ad,my-time,,,att1left,,,,,29,29,left,576,"[""Bad words""]","[""悪""]","{""score"":0,""parcel"":""first"",""corResp"":""left"",""condition"":""Bad words,Good words"",""block"":2}",,,
f57fa71b901076d4b57ee6fda4ac7cc3ff7244ad,my-time,,,att2right,,,,,30,30,right,1085,"[""Good words""]","[""愛""]","{""score"":0,""parcel"":""first"",""corResp"":""right"",""condition"":""Bad words,Good words"",""block"":2}",,,
f57fa71b901076d4b57ee6fda4ac7cc3ff7244ad,my-time,,,att2right,,,,,31,31,right,1278,"[""Good words""]","[""素晴らしい""]","{""score"":0,""parcel"":""first"",""corResp"":""right"",""condition"":""Bad words,Good words"",""block"":2}",,,
f57fa71b901076d4b57ee6fda4ac7cc3ff7244ad,my-time,,,att1left,,,,,32,32,left,839,"[""Bad words""]","[""最悪""]","{""score"":0,""parcel"":""first"",""corResp"":""left"",""condition"":""Bad words,Good words"",""block"":2}",,,
f57fa71b901076d4b57ee6fda4ac7cc3ff7244ad,my-time,,,att1left,,,,,33,33,left,1406,"[""Bad words""]","[""傷""]","{""score"":0,""parcel"":""first"",""corResp"":""left"",""condition"":""Bad words,Good words"",""block"":2}",,,
f57fa71b901076d4b57ee6fda4ac7cc3ff7244ad,my-time,,,att1left,,,,,34,34,left,901,"[""Bad words""]","[""ひどい""]","{""score"":0,""parcel"":""first"",""corResp"":""left"",""condition"":""Bad words,Good words"",""block"":2}",,,
f57fa71b901076d4b57ee6fda4ac7cc3ff7244ad,my-time,,,att2right,,,,,35,35,right,1614,"[""Good words""]","[""楽しい""]","{""score"":1,""parcel"":""first"",""corResp"":""right"",""condition"":""Bad words,Good words"",""block"":2}",,,
f57fa71b901076d4b57ee6fda4ac7cc3ff7244ad,my-time,,,att1left,,,,,36,36,left,1263,"[""Bad words""]","[""汚い""]","{""score"":1,""parcel"":""first"",""corResp"":""left"",""condition"":""Bad words,Good words"",""block"":2}",,,
f57fa71b901076d4b57ee6fda4ac7cc3ff7244ad,my-time,,,att2right,,,,,37,37,right,777,"[""Good words""]","[""平和""]","{""score"":0,""parcel"":""first"",""corResp"":""right"",""condition"":""Bad words,Good words"",""block"":2}",,,
f57fa71b901076d4b57ee6fda4ac7cc3ff7244ad,my-time,,,att2right,,,,,38,38,right,1192,"[""Good words""]","[""すばらしい""]","{""score"":1,""parcel"":""first"",""corResp"":""right"",""condition"":""Bad words,Good words"",""block"":2}",,,
f57fa71b901076d4b57ee6fda4ac7cc3ff7244ad,my-time,,,att1left,,,,,39,39,left,761,"[""Bad words""]","[""傷""]","{""score"":0,""parcel"":""first"",""corResp"":""left"",""condition"":""Bad words,Good words"",""block"":2}",,,
f57fa71b901076d4b57ee6fda4ac7cc3ff7244ad,my-time,,,att2right,,,,,40,40,right,868,"[""Good words""]","[""愛""]","{""score"":0,""parcel"":""first"",""corResp"":""right"",""condition"":""Bad words,Good words"",""block"":2}",,,
f57fa71b901076d4b57ee6fda4ac7cc3ff7244ad,my-time,,,att1left,,,,,41,41,left,704,"[""Bad words""]","[""失敗""]","{""score"":0,""parcel"":""first"",""corResp"":""left"",""condition"":""Bad words,Good words"",""block"":2}",,,
f57fa71b901076d4b57ee6fda4ac7cc3ff7244ad,my-time,,,instructions,,,,,42,42,space,12753,"[""dummy""]","["" ""]","{""blockStart"":true,""condition"":""instructions"",""score"":0,""block"":0}",,,
f57fa71b901076d4b57ee6fda4ac7cc3ff7244ad,my-time,,,cat1right,,,,,43,43,right,2712,"[""Poor people""]","[""poverty6.jpg""]","{""score"":0,""parcel"":""first"",""corResp"":""right"",""condition"":""Middle people/Bad words,Poor people/Good words"",""block"":3}",,,
f57fa71b901076d4b57ee6fda4ac7cc3ff7244ad,my-time,,,att2right,,,,,44,44,right,1228,"[""Good words""]","[""楽しい""]","{""score"":0,""parcel"":""first"",""corResp"":""right"",""condition"":""Middle people/Bad words,Poor people/Good words"",""block"":3}",,,
f57fa71b901076d4b57ee6fda4ac7cc3ff7244ad,my-time,,,cat2left,,,,,45,45,left,3853,"[""Middle people""]","[""rich1.jpg""]","{""score"":0,""parcel"":""first"",""corResp"":""left"",""condition"":""Middle people/Bad words,Poor people/Good words"",""block"":3}",,,
f57fa71b901076d4b57ee6fda4ac7cc3ff7244ad,my-time,,,att1left,,,,,46,46,left,1263,"[""Bad words""]","[""最悪""]","{""score"":0,""parcel"":""first"",""corResp"":""left"",""condition"":""Middle people/Bad words,Poor people/Good words"",""block"":3}",,,
f57fa71b901076d4b57ee6fda4ac7cc3ff7244ad,my-time,,,cat2left,,,,,47,47,left,1100,"[""Middle people""]","[""rich2.jpg""]","{""score"":0,""parcel"":""first"",""corResp"":""left"",""condition"":""Middle people/Bad words,Poor people/Good words"",""block"":3}",,,
f57fa71b901076d4b57ee6fda4ac7cc3ff7244ad,my-time,,,att1left,,,,,48,48,left,4998,"[""Bad words""]","[""苦しみ""]","{""score"":0,""parcel"":""first"",""corResp"":""left"",""condition"":""Middle people/Bad words,Poor people/Good words"",""block"":3}",,,
f57fa71b901076d4b57ee6fda4ac7cc3ff7244ad,my-time,,,cat1right,,,,,49,49,right,3255,"[""Poor people""]","[""poverty5.jpg""]","{""score"":0,""parcel"":""first"",""corResp"":""right"",""condition"":""Middle people/Bad words,Poor people/Good words"",""block"":3}",,,
f57fa71b901076d4b57ee6fda4ac7cc3ff7244ad,my-time,,,att2right,,,,,50,50,right,1413,"[""Good words""]","[""素晴らしい""]","{""score"":0,""parcel"":""first"",""corResp"":""right"",""condition"":""Middle people/Bad words,Poor people/Good words"",""block"":3}",,,
f57fa71b901076d4b57ee6fda4ac7cc3ff7244ad,my-time,,,cat2left,,,,,51,51,left,2839,"[""Middle people""]","[""rich1.jpg""]","{""score"":0,""parcel"":""first"",""corResp"":""left"",""condition"":""Middle people/Bad words,Poor people/Good words"",""block"":3}",,,
f57fa71b901076d4b57ee6fda4ac7cc3ff7244ad,my-time,,,att2right,,,,,52,52,right,865,"[""Good words""]","[""楽しい""]","{""score"":0,""parcel"":""first"",""corResp"":""right"",""condition"":""Middle people/Bad words,Poor people/Good words"",""block"":3}",,,
f57fa71b901076d4b57ee6fda4ac7cc3ff7244ad,my-time,,,cat1right,,,,,53,53,right,1310,"[""Poor people""]","[""poverty1.jpg""]","{""score"":0,""parcel"":""first"",""corResp"":""right"",""condition"":""Middle people/Bad words,Poor people/Good words"",""block"":3}",,,
f57fa71b901076d4b57ee6fda4ac7cc3ff7244ad,my-time,,,att1left,,,,,54,54,left,1277,"[""Bad words""]","[""ひどい""]","{""score"":0,""parcel"":""first"",""corResp"":""left"",""condition"":""Middle people/Bad words,Poor people/Good words"",""block"":3}",,,
f57fa71b901076d4b57ee6fda4ac7cc3ff7244ad,my-time,,,cat1right,,,,,55,55,right,1632,"[""Poor people""]","[""poverty4.jpg""]","{""score"":0,""parcel"":""first"",""corResp"":""right"",""condition"":""Middle people/Bad words,Poor people/Good words"",""block"":3}",,,
f57fa71b901076d4b57ee6fda4ac7cc3ff7244ad,my-time,,,att1left,,,,,56,56,left,2817,"[""Bad words""]","[""ひどい""]","{""score"":0,""parcel"":""first"",""corResp"":""left"",""condition"":""Middle people/Bad words,Poor people/Good words"",""block"":3}",,,
f57fa71b901076d4b57ee6fda4ac7cc3ff7244ad,my-time,,,cat2left,,,,,57,57,left,4385,"[""Middle people""]","[""rich3.jpg""]","{""score"":0,""parcel"":""first"",""corResp"":""left"",""condition"":""Middle people/Bad words,Poor people/Good words"",""block"":3}",,,
f57fa71b901076d4b57ee6fda4ac7cc3ff7244ad,my-time,,,att2right,,,,,58,58,right,800,"[""Good words""]","[""栄光""]","{""score"":0,""parcel"":""first"",""corResp"":""right"",""condition"":""Middle people/Bad words,Poor people/Good words"",""block"":3}",,,
f57fa71b901076d4b57ee6fda4ac7cc3ff7244ad,my-time,,,cat1right,,,,,59,59,right,1651,"[""Poor people""]","[""poverty6.jpg""]","{""score"":0,""parcel"":""first"",""corResp"":""right"",""condition"":""Middle people/Bad words,Poor people/Good words"",""block"":3}",,,
f57fa71b901076d4b57ee6fda4ac7cc3ff7244ad,my-time,,,att1left,,,,,60,60,left,1639,"[""Bad words""]","[""悪""]","{""score"":0,""parcel"":""first"",""corResp"":""left"",""condition"":""Middle people/Bad words,Poor people/Good words"",""block"":3}",,,
f57fa71b901076d4b57ee6fda4ac7cc3ff7244ad,my-time,,,cat2left,,,,,61,61,left,1538,"[""Middle people""]","[""rich5.jpg""]","{""score"":1,""parcel"":""first"",""corResp"":""left"",""condition"":""Middle people/Bad words,Poor people/Good words"",""block"":3}",,,
f57fa71b901076d4b57ee6fda4ac7cc3ff7244ad,my-time,,,att2right,,,,,62,62,right,2119,"[""Good words""]","[""平和""]","{""score"":0,""parcel"":""first"",""corResp"":""right"",""condition"":""Middle people/Bad words,Poor people/Good words"",""block"":3}",,,
f57fa71b901076d4b57ee6fda4ac7cc3ff7244ad,my-time,,,instructions,,,,,63,63,space,24783,"[""dummy""]","["" ""]","{""blockStart"":true,""condition"":""instructions"",""score"":0,""block"":0}",,,
f57fa71b901076d4b57ee6fda4ac7cc3ff7244ad,my-time,,,cat1right,,,,,64,64,right,2294,"[""Poor people""]","[""poverty3.jpg""]","{""score"":1,""parcel"":""first"",""corResp"":""right"",""condition"":""Middle people/Bad words,Poor people/Good words"",""block"":4}",,,
f57fa71b901076d4b57ee6fda4ac7cc3ff7244ad,my-time,,,att1left,,,,,65,65,left,2233,"[""Bad words""]","[""汚い""]","{""score"":0,""parcel"":""first"",""corResp"":""left"",""condition"":""Middle people/Bad words,Poor people/Good words"",""block"":4}",,,
f57fa71b901076d4b57ee6fda4ac7cc3ff7244ad,my-time,,,cat2left,,,,,66,66,left,3310,"[""Middle people""]","[""rich2.jpg""]","{""score"":0,""parcel"":""first"",""corResp"":""left"",""condition"":""Middle people/Bad words,Poor people/Good words"",""block"":4}",,,
f57fa71b901076d4b57ee6fda4ac7cc3ff7244ad,my-time,,,att2right,,,,,67,67,right,1587,"[""Good words""]","[""笑顔""]","{""score"":0,""parcel"":""first"",""corResp"":""right"",""condition"":""Middle people/Bad words,Poor people/Good words"",""block"":4}",,,
f57fa71b901076d4b57ee6fda4ac7cc3ff7244ad,my-time,,,cat1right,,,,,68,68,right,2245,"[""Poor people""]","[""poverty5.jpg""]","{""score"":0,""parcel"":""first"",""corResp"":""right"",""condition"":""Middle people/Bad words,Poor people/Good words"",""block"":4}",,,
f57fa71b901076d4b57ee6fda4ac7cc3ff7244ad,my-time,,,att1left,,,,,69,69,left,1178,"[""Bad words""]","[""ひどい""]","{""score"":0,""parcel"":""first"",""corResp"":""left"",""condition"":""Middle people/Bad words,Poor people/Good words"",""block"":4}",,,
f57fa71b901076d4b57ee6fda4ac7cc3ff7244ad,my-time,,,cat2left,,,,,70,70,left,1860,"[""Middle people""]","[""rich4.jpg""]","{""score"":0,""parcel"":""first"",""corResp"":""left"",""condition"":""Middle people/Bad words,Poor people/Good words"",""block"":4}",,,
f57fa71b901076d4b57ee6fda4ac7cc3ff7244ad,my-time,,,att2right,,,,,71,71,right,2600,"[""Good words""]","[""楽しい""]","{""score"":1,""parcel"":""first"",""corResp"":""right"",""condition"":""Middle people/Bad words,Poor people/Good words"",""block"":4}",,,
f57fa71b901076d4b57ee6fda4ac7cc3ff7244ad,my-time,,,cat2left,,,,,72,72,left,1104,"[""Middle people""]","[""rich6.jpg""]","{""score"":0,""parcel"":""first"",""corResp"":""left"",""condition"":""Middle people/Bad words,Poor people/Good words"",""block"":4}",,,
f57fa71b901076d4b57ee6fda4ac7cc3ff7244ad,my-time,,,att2right,,,,,73,73,right,1786,"[""Good words""]","[""すばらしい""]","{""score"":0,""parcel"":""first"",""corResp"":""right"",""condition"":""Middle people/Bad words,Poor people/Good words"",""block"":4}",,,
f57fa71b901076d4b57ee6fda4ac7cc3ff7244ad,my-time,,,cat1right,,,,,74,74,right,3005,"[""Poor people""]","[""poverty2.jpg""]","{""score"":0,""parcel"":""first"",""corResp"":""right"",""condition"":""Middle people/Bad words,Poor people/Good words"",""block"":4}",,,
f57fa71b901076d4b57ee6fda4ac7cc3ff7244ad,my-time,,,att1left,,,,,75,75,left,1603,"[""Bad words""]","[""悪""]","{""score"":0,""parcel"":""first"",""corResp"":""left"",""condition"":""Middle people/Bad words,Poor people/Good words"",""block"":4}",,,
f57fa71b901076d4b57ee6fda4ac7cc3ff7244ad,my-time,,,cat2left,,,,,76,76,left,1956,"[""Middle people""]","[""rich6.jpg""]","{""score"":0,""parcel"":""first"",""corResp"":""left"",""condition"":""Middle people/Bad words,Poor people/Good words"",""block"":4}",,,
f57fa71b901076d4b57ee6fda4ac7cc3ff7244ad,my-time,,,att1left,,,,,77,77,left,2307,"[""Bad words""]","[""汚い""]","{""score"":1,""parcel"":""first"",""corResp"":""left"",""condition"":""Middle people/Bad words,Poor people/Good words"",""block"":4}",,,
f57fa71b901076d4b57ee6fda4ac7cc3ff7244ad,my-time,,,cat1right,,,,,78,78,right,5241,"[""Poor people""]","[""poverty5.jpg""]","{""score"":1,""parcel"":""first"",""corResp"":""right"",""condition"":""Middle people/Bad words,Poor people/Good words"",""block"":4}",,,
f57fa71b901076d4b57ee6fda4ac7cc3ff7244ad,my-time,,,att2right,,,,,79,79,right,2510,"[""Good words""]","[""笑顔""]","{""score"":1,""parcel"":""first"",""corResp"":""right"",""condition"":""Middle people/Bad words,Poor people/Good words"",""block"":4}",,,
f57fa71b901076d4b57ee6fda4ac7cc3ff7244ad,my-time,,,cat2left,,,,,80,80,left,1032,"[""Middle people""]","[""rich2.jpg""]","{""score"":0,""parcel"":""first"",""corResp"":""left"",""condition"":""Middle people/Bad words,Poor people/Good words"",""block"":4}",,,
f57fa71b901076d4b57ee6fda4ac7cc3ff7244ad,my-time,,,att2right,,,,,81,81,right,5101,"[""Good words""]","[""楽しい""]","{""score"":0,""parcel"":""first"",""corResp"":""right"",""condition"":""Middle people/Bad words,Poor people/Good words"",""block"":4}",,,
f57fa71b901076d4b57ee6fda4ac7cc3ff7244ad,my-time,,,cat1right,,,,,82,82,right,2419,"[""Poor people""]","[""poverty6.jpg""]","{""score"":0,""parcel"":""first"",""corResp"":""right"",""condition"":""Middle people/Bad words,Poor people/Good words"",""block"":4}",,,
f57fa71b901076d4b57ee6fda4ac7cc3ff7244ad,my-time,,,att1left,,,,,83,83,left,4204,"[""Bad words""]","[""苦しみ""]","{""score"":0,""parcel"":""first"",""corResp"":""left"",""condition"":""Middle people/Bad words,Poor people/Good words"",""block"":4}",,,
f57fa71b901076d4b57ee6fda4ac7cc3ff7244ad,my-time,,,cat1right,,,,,84,84,right,1491,"[""Poor people""]","[""poverty2.jpg""]","{""score"":0,""parcel"":""first"",""corResp"":""right"",""condition"":""Middle people/Bad words,Poor people/Good words"",""block"":4}",,,
f57fa71b901076d4b57ee6fda4ac7cc3ff7244ad,my-time,,,att2right,,,,,85,85,right,1258,"[""Good words""]","[""栄光""]","{""score"":1,""parcel"":""first"",""corResp"":""right"",""condition"":""Middle people/Bad words,Poor people/Good words"",""block"":4}",,,
f57fa71b901076d4b57ee6fda4ac7cc3ff7244ad,my-time,,,cat2left,,,,,86,86,left,6505,"[""Middle people""]","[""rich5.jpg""]","{""score"":0,""parcel"":""first"",""corResp"":""left"",""condition"":""Middle people/Bad words,Poor people/Good words"",""block"":4}",,,
f57fa71b901076d4b57ee6fda4ac7cc3ff7244ad,my-time,,,att1left,,,,,87,87,left,1072,"[""Bad words""]","[""ひどい""]","{""score"":0,""parcel"":""first"",""corResp"":""left"",""condition"":""Middle people/Bad words,Poor people/Good words"",""block"":4}",,,
f57fa71b901076d4b57ee6fda4ac7cc3ff7244ad,my-time,,,cat2left,,,,,88,88,left,1763,"[""Middle people""]","[""rich4.jpg""]","{""score"":0,""parcel"":""first"",""corResp"":""left"",""condition"":""Middle people/Bad words,Poor people/Good words"",""block"":4}",,,
f57fa71b901076d4b57ee6fda4ac7cc3ff7244ad,my-time,,,att2right,,,,,89,89,right,5481,"[""Good words""]","[""平和""]","{""score"":0,""parcel"":""first"",""corResp"":""right"",""condition"":""Middle people/Bad words,Poor people/Good words"",""block"":4}",,,
f57fa71b901076d4b57ee6fda4ac7cc3ff7244ad,my-time,,,cat1right,,,,,90,90,right,1501,"[""Poor people""]","[""poverty1.jpg""]","{""score"":0,""parcel"":""first"",""corResp"":""right"",""condition"":""Middle people/Bad words,Poor people/Good words"",""block"":4}",,,
f57fa71b901076d4b57ee6fda4ac7cc3ff7244ad,my-time,,,att1left,,,,,91,91,left,1717,"[""Bad words""]","[""傷""]","{""score"":0,""parcel"":""first"",""corResp"":""left"",""condition"":""Middle people/Bad words,Poor people/Good words"",""block"":4}",,,
f57fa71b901076d4b57ee6fda4ac7cc3ff7244ad,my-time,,,cat1right,,,,,92,92,right,3197,"[""Poor people""]","[""poverty4.jpg""]","{""score"":0,""parcel"":""first"",""corResp"":""right"",""condition"":""Middle people/Bad words,Poor people/Good words"",""block"":4}",,,
f57fa71b901076d4b57ee6fda4ac7cc3ff7244ad,my-time,,,att2right,,,,,93,93,right,3358,"[""Good words""]","[""素晴らしい""]","{""score"":0,""parcel"":""first"",""corResp"":""right"",""condition"":""Middle people/Bad words,Poor people/Good words"",""block"":4}",,,
f57fa71b901076d4b57ee6fda4ac7cc3ff7244ad,my-time,,,cat2left,,,,,94,94,left,1191,"[""Middle people""]","[""rich3.jpg""]","{""score"":0,""parcel"":""first"",""corResp"":""left"",""condition"":""Middle people/Bad words,Poor people/Good words"",""block"":4}",,,
f57fa71b901076d4b57ee6fda4ac7cc3ff7244ad,my-time,,,att1left,,,,,95,95,left,2414,"[""Bad words""]","[""失敗""]","{""score"":0,""parcel"":""first"",""corResp"":""left"",""condition"":""Middle people/Bad words,Poor people/Good words"",""block"":4}",,,
f57fa71b901076d4b57ee6fda4ac7cc3ff7244ad,my-time,,,cat1right,,,,,96,96,right,1560,"[""Poor people""]","[""poverty3.jpg""]","{""score"":1,""parcel"":""first"",""corResp"":""right"",""condition"":""Middle people/Bad words,Poor people/Good words"",""block"":4}",,,
f57fa71b901076d4b57ee6fda4ac7cc3ff7244ad,my-time,,,att2right,,,,,97,97,right,5471,"[""Good words""]","[""愛""]","{""score"":0,""parcel"":""first"",""corResp"":""right"",""condition"":""Middle people/Bad words,Poor people/Good words"",""block"":4}",,,
f57fa71b901076d4b57ee6fda4ac7cc3ff7244ad,my-time,,,cat2left,,,,,98,98,left,2125,"[""Middle people""]","[""rich1.jpg""]","{""score"":0,""parcel"":""first"",""corResp"":""left"",""condition"":""Middle people/Bad words,Poor people/Good words"",""block"":4}",,,
f57fa71b901076d4b57ee6fda4ac7cc3ff7244ad,my-time,,,att1left,,,,,99,99,left,8913,"[""Bad words""]","[""最悪""]","{""score"":0,""parcel"":""first"",""corResp"":""left"",""condition"":""Middle people/Bad words,Poor people/Good words"",""block"":4}",,,
f57fa71b901076d4b57ee6fda4ac7cc3ff7244ad,my-time,,,cat1right,,,,,100,100,right,1363,"[""Poor people""]","[""poverty3.jpg""]","{""score"":0,""parcel"":""first"",""corResp"":""right"",""condition"":""Middle people/Bad words,Poor people/Good words"",""block"":4}",,,
f57fa71b901076d4b57ee6fda4ac7cc3ff7244ad,my-time,,,att1left,,,,,101,101,left,1064,"[""Bad words""]","[""ひどい""]","{""score"":0,""parcel"":""first"",""corResp"":""left"",""condition"":""Middle people/Bad words,Poor people/Good words"",""block"":4}",,,
f57fa71b901076d4b57ee6fda4ac7cc3ff7244ad,my-time,,,cat2left,,,,,102,102,left,1403,"[""Middle people""]","[""rich4.jpg""]","{""score"":0,""parcel"":""first"",""corResp"":""left"",""condition"":""Middle people/Bad words,Poor people/Good words"",""block"":4}",,,
f57fa71b901076d4b57ee6fda4ac7cc3ff7244ad,my-time,,,att2right,,,,,103,103,right,2326,"[""Good words""]","[""平和""]","{""score"":0,""parcel"":""first"",""corResp"":""right"",""condition"":""Middle people/Bad words,Poor people/Good words"",""block"":4}",,,
f57fa71b901076d4b57ee6fda4ac7cc3ff7244ad,my-time,,,instructions,,,,,104,104,space,10377,"[""dummy""]","["" ""]","{""blockStart"":true,""condition"":""instructions"",""score"":0,""block"":0}",,,
f57fa71b901076d4b57ee6fda4ac7cc3ff7244ad,my-time,,,cat2right,,,,,105,105,right,2136,"[""Middle people""]","[""rich6.jpg""]","{""score"":0,""parcel"":""first"",""corResp"":""right"",""condition"":""Poor people,Middle people"",""block"":5}",,,
f57fa71b901076d4b57ee6fda4ac7cc3ff7244ad,my-time,,,cat1left,,,,,106,106,left,912,"[""Poor people""]","[""poverty5.jpg""]","{""score"":0,""parcel"":""first"",""corResp"":""left"",""condition"":""Poor people,Middle people"",""block"":5}",,,
f57fa71b901076d4b57ee6fda4ac7cc3ff7244ad,my-time,,,cat2right,,,,,107,107,right,4465,"[""Middle people""]","[""rich1.jpg""]","{""score"":0,""parcel"":""first"",""corResp"":""right"",""condition"":""Poor people,Middle people"",""block"":5}",,,
f57fa71b901076d4b57ee6fda4ac7cc3ff7244ad,my-time,,,cat1left,,,,,108,108,left,2472,"[""Poor people""]","[""poverty4.jpg""]","{""score"":0,""parcel"":""first"",""corResp"":""left"",""condition"":""Poor people,Middle people"",""block"":5}",,,
f57fa71b901076d4b57ee6fda4ac7cc3ff7244ad,my-time,,,cat2right,,,,,109,109,right,831,"[""Middle people""]","[""rich3.jpg""]","{""score"":0,""parcel"":""first"",""corResp"":""right"",""condition"":""Poor people,Middle people"",""block"":5}",,,
f57fa71b901076d4b57ee6fda4ac7cc3ff7244ad,my-time,,,cat1left,,,,,110,110,left,1082,"[""Poor people""]","[""poverty6.jpg""]","{""score"":0,""parcel"":""first"",""corResp"":""left"",""condition"":""Poor people,Middle people"",""block"":5}",,,
f57fa71b901076d4b57ee6fda4ac7cc3ff7244ad,my-time,,,cat2right,,,,,111,111,right,2211,"[""Middle people""]","[""rich5.jpg""]","{""score"":0,""parcel"":""first"",""corResp"":""right"",""condition"":""Poor people,Middle people"",""block"":5}",,,
f57fa71b901076d4b57ee6fda4ac7cc3ff7244ad,my-time,,,cat1left,,,,,112,112,left,1249,"[""Poor people""]","[""poverty2.jpg""]","{""score"":0,""parcel"":""first"",""corResp"":""left"",""condition"":""Poor people,Middle people"",""block"":5}",,,
f57fa71b901076d4b57ee6fda4ac7cc3ff7244ad,my-time,,,cat2right,,,,,113,113,right,858,"[""Middle people""]","[""rich2.jpg""]","{""score"":0,""parcel"":""first"",""corResp"":""right"",""condition"":""Poor people,Middle people"",""block"":5}",,,
f57fa71b901076d4b57ee6fda4ac7cc3ff7244ad,my-time,,,cat2right,,,,,114,114,right,1056,"[""Middle people""]","[""rich4.jpg""]","{""score"":0,""parcel"":""first"",""corResp"":""right"",""condition"":""Poor people,Middle people"",""block"":5}",,,
f57fa71b901076d4b57ee6fda4ac7cc3ff7244ad,my-time,,,cat1left,,,,,115,115,left,1230,"[""Poor people""]","[""poverty1.jpg""]","{""score"":0,""parcel"":""first"",""corResp"":""left"",""condition"":""Poor people,Middle people"",""block"":5}",,,
f57fa71b901076d4b57ee6fda4ac7cc3ff7244ad,my-time,,,cat1left,,,,,116,116,left,777,"[""Poor people""]","[""poverty3.jpg""]","{""score"":0,""parcel"":""first"",""corResp"":""left"",""condition"":""Poor people,Middle people"",""block"":5}",,,
f57fa71b901076d4b57ee6fda4ac7cc3ff7244ad,my-time,,,cat2right,,,,,117,117,right,925,"[""Middle people""]","[""rich1.jpg""]","{""score"":0,""parcel"":""first"",""corResp"":""right"",""condition"":""Poor people,Middle people"",""block"":5}",,,
f57fa71b901076d4b57ee6fda4ac7cc3ff7244ad,my-time,,,cat2right,,,,,118,118,right,938,"[""Middle people""]","[""rich2.jpg""]","{""score"":0,""parcel"":""first"",""corResp"":""right"",""condition"":""Poor people,Middle people"",""block"":5}",,,
f57fa71b901076d4b57ee6fda4ac7cc3ff7244ad,my-time,,,cat1left,,,,,119,119,left,919,"[""Poor people""]","[""poverty5.jpg""]","{""score"":0,""parcel"":""first"",""corResp"":""left"",""condition"":""Poor people,Middle people"",""block"":5}",,,
f57fa71b901076d4b57ee6fda4ac7cc3ff7244ad,my-time,,,cat1left,,,,,120,120,left,2892,"[""Poor people""]","[""poverty6.jpg""]","{""score"":0,""parcel"":""first"",""corResp"":""left"",""condition"":""Poor people,Middle people"",""block"":5}",,,
f57fa71b901076d4b57ee6fda4ac7cc3ff7244ad,my-time,,,cat1left,,,,,121,121,left,720,"[""Poor people""]","[""poverty1.jpg""]","{""score"":0,""parcel"":""first"",""corResp"":""left"",""condition"":""Poor people,Middle people"",""block"":5}",,,
f57fa71b901076d4b57ee6fda4ac7cc3ff7244ad,my-time,,,cat2right,,,,,122,122,right,1853,"[""Middle people""]","[""rich5.jpg""]","{""score"":0,""parcel"":""first"",""corResp"":""right"",""condition"":""Poor people,Middle people"",""block"":5}",,,
f57fa71b901076d4b57ee6fda4ac7cc3ff7244ad,my-time,,,cat2right,,,,,123,123,right,1095,"[""Middle people""]","[""rich6.jpg""]","{""score"":0,""parcel"":""first"",""corResp"":""right"",""condition"":""Poor people,Middle people"",""block"":5}",,,
f57fa71b901076d4b57ee6fda4ac7cc3ff7244ad,my-time,,,cat1left,,,,,124,124,left,755,"[""Poor people""]","[""poverty2.jpg""]","{""score"":0,""parcel"":""first"",""corResp"":""left"",""condition"":""Poor people,Middle people"",""block"":5}",,,
f57fa71b901076d4b57ee6fda4ac7cc3ff7244ad,my-time,,,cat2right,,,,,125,125,right,4388,"[""Middle people""]","[""rich3.jpg""]","{""score"":1,""parcel"":""first"",""corResp"":""right"",""condition"":""Poor people,Middle people"",""block"":5}",,,
f57fa71b901076d4b57ee6fda4ac7cc3ff7244ad,my-time,,,cat2right,,,,,126,126,right,782,"[""Middle people""]","[""rich3.jpg""]","{""score"":0,""parcel"":""first"",""corResp"":""right"",""condition"":""Poor people,Middle people"",""block"":5}",,,
f57fa71b901076d4b57ee6fda4ac7cc3ff7244ad,my-time,,,cat1left,,,,,127,127,left,1327,"[""Poor people""]","[""poverty4.jpg""]","{""score"":0,""parcel"":""first"",""corResp"":""left"",""condition"":""Poor people,Middle people"",""block"":5}",,,
f57fa71b901076d4b57ee6fda4ac7cc3ff7244ad,my-time,,,cat1left,,,,,128,128,left,3400,"[""Poor people""]","[""poverty5.jpg""]","{""score"":0,""parcel"":""first"",""corResp"":""left"",""condition"":""Poor people,Middle people"",""block"":5}",,,
f57fa71b901076d4b57ee6fda4ac7cc3ff7244ad,my-time,,,cat2right,,,,,129,129,right,4736,"[""Middle people""]","[""rich5.jpg""]","{""score"":0,""parcel"":""first"",""corResp"":""right"",""condition"":""Poor people,Middle people"",""block"":5}",,,
f57fa71b901076d4b57ee6fda4ac7cc3ff7244ad,my-time,,,cat1left,,,,,130,130,left,1493,"[""Poor people""]","[""poverty4.jpg""]","{""score"":1,""parcel"":""first"",""corResp"":""left"",""condition"":""Poor people,Middle people"",""block"":5}",,,
f57fa71b901076d4b57ee6fda4ac7cc3ff7244ad,my-time,,,cat2right,,,,,131,131,right,1140,"[""Middle people""]","[""rich1.jpg""]","{""score"":0,""parcel"":""first"",""corResp"":""right"",""condition"":""Poor people,Middle people"",""block"":5}",,,
f57fa71b901076d4b57ee6fda4ac7cc3ff7244ad,my-time,,,cat1left,,,,,132,132,left,3533,"[""Poor people""]","[""poverty1.jpg""]","{""score"":0,""parcel"":""first"",""corResp"":""left"",""condition"":""Poor people,Middle people"",""block"":5}",,,
f57fa71b901076d4b57ee6fda4ac7cc3ff7244ad,my-time,,,instructions,,,,,133,133,space,23899,"[""dummy""]","["" ""]","{""blockStart"":true,""condition"":""instructions"",""score"":0,""block"":0}",,,
f57fa71b901076d4b57ee6fda4ac7cc3ff7244ad,my-time,,,cat1left,,,,,134,134,left,1951,"[""Poor people""]","[""poverty2.jpg""]","{""score"":0,""parcel"":""first"",""corResp"":""left"",""condition"":""Poor people/Bad words,Middle people/Good words"",""block"":6}",,,
f57fa71b901076d4b57ee6fda4ac7cc3ff7244ad,my-time,,,att1left,,,,,135,135,left,1498,"[""Bad words""]","[""悪""]","{""score"":0,""parcel"":""first"",""corResp"":""left"",""condition"":""Poor people/Bad words,Middle people/Good words"",""block"":6}",,,
f57fa71b901076d4b57ee6fda4ac7cc3ff7244ad,my-time,,,cat2right,,,,,136,136,right,714,"[""Middle people""]","[""rich6.jpg""]","{""score"":0,""parcel"":""first"",""corResp"":""right"",""condition"":""Poor people/Bad words,Middle people/Good words"",""block"":6}",,,
f57fa71b901076d4b57ee6fda4ac7cc3ff7244ad,my-time,,,att2right,,,,,137,137,right,744,"[""Good words""]","[""楽しい""]","{""score"":0,""parcel"":""first"",""corResp"":""right"",""condition"":""Poor people/Bad words,Middle people/Good words"",""block"":6}",,,
f57fa71b901076d4b57ee6fda4ac7cc3ff7244ad,my-time,,,cat2right,,,,,138,138,right,502,"[""Middle people""]","[""rich4.jpg""]","{""score"":0,""parcel"":""first"",""corResp"":""right"",""condition"":""Poor people/Bad words,Middle people/Good words"",""block"":6}",,,
f57fa71b901076d4b57ee6fda4ac7cc3ff7244ad,my-time,,,att2right,,,,,139,139,right,504,"[""Good words""]","[""すばらしい""]","{""score"":0,""parcel"":""first"",""corResp"":""right"",""condition"":""Poor people/Bad words,Middle people/Good words"",""block"":6}",,,
f57fa71b901076d4b57ee6fda4ac7cc3ff7244ad,my-time,,,cat1left,,,,,140,140,left,668,"[""Poor people""]","[""poverty3.jpg""]","{""score"":0,""parcel"":""first"",""corResp"":""left"",""condition"":""Poor people/Bad words,Middle people/Good words"",""block"":6}",,,
f57fa71b901076d4b57ee6fda4ac7cc3ff7244ad,my-time,,,att1left,,,,,141,141,left,449,"[""Bad words""]","[""最悪""]","{""score"":0,""parcel"":""first"",""corResp"":""left"",""condition"":""Poor people/Bad words,Middle people/Good words"",""block"":6}",,,
f57fa71b901076d4b57ee6fda4ac7cc3ff7244ad,my-time,,,cat1left,,,,,142,142,left,673,"[""Poor people""]","[""poverty6.jpg""]","{""score"":0,""parcel"":""first"",""corResp"":""left"",""condition"":""Poor people/Bad words,Middle people/Good words"",""block"":6}",,,
f57fa71b901076d4b57ee6fda4ac7cc3ff7244ad,my-time,,,att1left,,,,,143,143,left,655,"[""Bad words""]","[""苦しみ""]","{""score"":0,""parcel"":""first"",""corResp"":""left"",""condition"":""Poor people/Bad words,Middle people/Good words"",""block"":6}",,,
f57fa71b901076d4b57ee6fda4ac7cc3ff7244ad,my-time,,,cat2right,,,,,144,144,right,542,"[""Middle people""]","[""rich2.jpg""]","{""score"":0,""parcel"":""first"",""corResp"":""right"",""condition"":""Poor people/Bad words,Middle people/Good words"",""block"":6}",,,
f57fa71b901076d4b57ee6fda4ac7cc3ff7244ad,my-time,,,att2right,,,,,145,145,right,661,"[""Good words""]","[""笑顔""]","{""score"":0,""parcel"":""first"",""corResp"":""right"",""condition"":""Poor people/Bad words,Middle people/Good words"",""block"":6}",,,
f57fa71b901076d4b57ee6fda4ac7cc3ff7244ad,my-time,,,cat2right,,,,,146,146,right,628,"[""Middle people""]","[""rich3.jpg""]","{""score"":0,""parcel"":""first"",""corResp"":""right"",""condition"":""Poor people/Bad words,Middle people/Good words"",""block"":6}",,,
f57fa71b901076d4b57ee6fda4ac7cc3ff7244ad,my-time,,,att1left,,,,,147,147,left,681,"[""Bad words""]","[""傷""]","{""score"":0,""parcel"":""first"",""corResp"":""left"",""condition"":""Poor people/Bad words,Middle people/Good words"",""block"":6}",,,
f57fa71b901076d4b57ee6fda4ac7cc3ff7244ad,my-time,,,cat1left,,,,,148,148,left,567,"[""Poor people""]","[""poverty5.jpg""]","{""score"":0,""parcel"":""first"",""corResp"":""left"",""condition"":""Poor people/Bad words,Middle people/Good words"",""block"":6}",,,
f57fa71b901076d4b57ee6fda4ac7cc3ff7244ad,my-time,,,att2right,,,,,149,149,right,786,"[""Good words""]","[""愛""]","{""score"":0,""parcel"":""first"",""corResp"":""right"",""condition"":""Poor people/Bad words,Middle people/Good words"",""block"":6}",,,
f57fa71b901076d4b57ee6fda4ac7cc3ff7244ad,my-time,,,cat1left,,,,,150,150,left,733,"[""Poor people""]","[""poverty3.jpg""]","{""score"":0,""parcel"":""first"",""corResp"":""left"",""condition"":""Poor people/Bad words,Middle people/Good words"",""block"":6}",,,
f57fa71b901076d4b57ee6fda4ac7cc3ff7244ad,my-time,,,att1left,,,,,151,151,left,643,"[""Bad words""]","[""汚い""]","{""score"":0,""parcel"":""first"",""corResp"":""left"",""condition"":""Poor people/Bad words,Middle people/Good words"",""block"":6}",,,
f57fa71b901076d4b57ee6fda4ac7cc3ff7244ad,my-time,,,cat2right,,,,,152,152,right,837,"[""Middle people""]","[""rich1.jpg""]","{""score"":0,""parcel"":""first"",""corResp"":""right"",""condition"":""Poor people/Bad words,Middle people/Good words"",""block"":6}",,,
f57fa71b901076d4b57ee6fda4ac7cc3ff7244ad,my-time,,,att2right,,,,,153,153,right,959,"[""Good words""]","[""素晴らしい""]","{""score"":0,""parcel"":""first"",""corResp"":""right"",""condition"":""Poor people/Bad words,Middle people/Good words"",""block"":6}",,,
f57fa71b901076d4b57ee6fda4ac7cc3ff7244ad,my-time,,,instructions,,,,,154,154,space,6156,"[""dummy""]","["" ""]","{""blockStart"":true,""condition"":""instructions"",""score"":0,""block"":0}",,,
f57fa71b901076d4b57ee6fda4ac7cc3ff7244ad,my-time,,,cat2right,,,,,155,155,right,4955,"[""Middle people""]","[""rich5.jpg""]","{""score"":0,""parcel"":""first"",""corResp"":""right"",""condition"":""Poor people/Bad words,Middle people/Good words"",""block"":7}",,,
f57fa71b901076d4b57ee6fda4ac7cc3ff7244ad,my-time,,,att1left,,,,,156,156,left,791,"[""Bad words""]","[""失敗""]","{""score"":0,""parcel"":""first"",""corResp"":""left"",""condition"":""Poor people/Bad words,Middle people/Good words"",""block"":7}",,,
f57fa71b901076d4b57ee6fda4ac7cc3ff7244ad,my-time,,,cat1left,,,,,157,157,left,533,"[""Poor people""]","[""poverty2.jpg""]","{""score"":0,""parcel"":""first"",""corResp"":""left"",""condition"":""Poor people/Bad words,Middle people/Good words"",""block"":7}",,,
f57fa71b901076d4b57ee6fda4ac7cc3ff7244ad,my-time,,,att2right,,,,,158,158,right,693,"[""Good words""]","[""栄光""]","{""score"":0,""parcel"":""first"",""corResp"":""right"",""condition"":""Poor people/Bad words,Middle people/Good words"",""block"":7}",,,
f57fa71b901076d4b57ee6fda4ac7cc3ff7244ad,my-time,,,cat1left,,,,,159,159,left,891,"[""Poor people""]","[""poverty1.jpg""]","{""score"":0,""parcel"":""first"",""corResp"":""left"",""condition"":""Poor people/Bad words,Middle people/Good words"",""block"":7}",,,
f57fa71b901076d4b57ee6fda4ac7cc3ff7244ad,my-time,,,att1left,,,,,160,160,left,795,"[""Bad words""]","[""ひどい""]","{""score"":0,""parcel"":""first"",""corResp"":""left"",""condition"":""Poor people/Bad words,Middle people/Good words"",""block"":7}",,,
f57fa71b901076d4b57ee6fda4ac7cc3ff7244ad,my-time,,,cat2right,,,,,161,161,right,755,"[""Middle people""]","[""rich6.jpg""]","{""score"":0,""parcel"":""first"",""corResp"":""right"",""condition"":""Poor people/Bad words,Middle people/Good words"",""block"":7}",,,
f57fa71b901076d4b57ee6fda4ac7cc3ff7244ad,my-time,,,att2right,,,,,162,162,right,611,"[""Good words""]","[""楽しい""]","{""score"":0,""parcel"":""first"",""corResp"":""right"",""condition"":""Poor people/Bad words,Middle people/Good words"",""block"":7}",,,
f57fa71b901076d4b57ee6fda4ac7cc3ff7244ad,my-time,,,cat2right,,,,,163,163,right,999,"[""Middle people""]","[""rich2.jpg""]","{""score"":1,""parcel"":""first"",""corResp"":""right"",""condition"":""Poor people/Bad words,Middle people/Good words"",""block"":7}",,,
f57fa71b901076d4b57ee6fda4ac7cc3ff7244ad,my-time,,,att1left,,,,,164,164,left,1264,"[""Bad words""]","[""失敗""]","{""score"":0,""parcel"":""first"",""corResp"":""left"",""condition"":""Poor people/Bad words,Middle people/Good words"",""block"":7}",,,
f57fa71b901076d4b57ee6fda4ac7cc3ff7244ad,my-time,,,cat1left,,,,,165,165,left,1265,"[""Poor people""]","[""poverty4.jpg""]","{""score"":0,""parcel"":""first"",""corResp"":""left"",""condition"":""Poor people/Bad words,Middle people/Good words"",""block"":7}",,,
f57fa71b901076d4b57ee6fda4ac7cc3ff7244ad,my-time,,,att2right,,,,,166,166,right,724,"[""Good words""]","[""笑顔""]","{""score"":0,""parcel"":""first"",""corResp"":""right"",""condition"":""Poor people/Bad words,Middle people/Good words"",""block"":7}",,,
f57fa71b901076d4b57ee6fda4ac7cc3ff7244ad,my-time,,,cat1left,,,,,167,167,left,641,"[""Poor people""]","[""poverty6.jpg""]","{""score"":0,""parcel"":""first"",""corResp"":""left"",""condition"":""Poor people/Bad words,Middle people/Good words"",""block"":7}",,,
f57fa71b901076d4b57ee6fda4ac7cc3ff7244ad,my-time,,,att2right,,,,,168,168,right,766,"[""Good words""]","[""栄光""]","{""score"":0,""parcel"":""first"",""corResp"":""right"",""condition"":""Poor people/Bad words,Middle people/Good words"",""block"":7}",,,
f57fa71b901076d4b57ee6fda4ac7cc3ff7244ad,my-time,,,cat2right,,,,,169,169,right,663,"[""Middle people""]","[""rich4.jpg""]","{""score"":0,""parcel"":""first"",""corResp"":""right"",""condition"":""Poor people/Bad words,Middle people/Good words"",""block"":7}",,,
f57fa71b901076d4b57ee6fda4ac7cc3ff7244ad,my-time,,,att1left,,,,,170,170,left,869,"[""Bad words""]","[""最悪""]","{""score"":0,""parcel"":""first"",""corResp"":""left"",""condition"":""Poor people/Bad words,Middle people/Good words"",""block"":7}",,,
f57fa71b901076d4b57ee6fda4ac7cc3ff7244ad,my-time,,,cat2right,,,,,171,171,right,666,"[""Middle people""]","[""rich3.jpg""]","{""score"":0,""parcel"":""first"",""corResp"":""right"",""condition"":""Poor people/Bad words,Middle people/Good words"",""block"":7}",,,
f57fa71b901076d4b57ee6fda4ac7cc3ff7244ad,my-time,,,att1left,,,,,172,172,left,1302,"[""Bad words""]","[""ひどい""]","{""score"":0,""parcel"":""first"",""corResp"":""left"",""condition"":""Poor people/Bad words,Middle people/Good words"",""block"":7}",,,
f57fa71b901076d4b57ee6fda4ac7cc3ff7244ad,my-time,,,cat1left,,,,,173,173,left,800,"[""Poor people""]","[""poverty3.jpg""]","{""score"":0,""parcel"":""first"",""corResp"":""left"",""condition"":""Poor people/Bad words,Middle people/Good words"",""block"":7}",,,
f57fa71b901076d4b57ee6fda4ac7cc3ff7244ad,my-time,,,att2right,,,,,174,174,right,713,"[""Good words""]","[""楽しい""]","{""score"":0,""parcel"":""first"",""corResp"":""right"",""condition"":""Poor people/Bad words,Middle people/Good words"",""block"":7}",,,
f57fa71b901076d4b57ee6fda4ac7cc3ff7244ad,my-time,,,cat2right,,,,,175,175,right,1360,"[""Middle people""]","[""rich4.jpg""]","{""score"":0,""parcel"":""first"",""corResp"":""right"",""condition"":""Poor people/Bad words,Middle people/Good words"",""block"":7}",,,
f57fa71b901076d4b57ee6fda4ac7cc3ff7244ad,my-time,,,att2right,,,,,176,176,right,854,"[""Good words""]","[""愛""]","{""score"":0,""parcel"":""first"",""corResp"":""right"",""condition"":""Poor people/Bad words,Middle people/Good words"",""block"":7}",,,
f57fa71b901076d4b57ee6fda4ac7cc3ff7244ad,my-time,,,cat1left,,,,,177,177,left,572,"[""Poor people""]","[""poverty2.jpg""]","{""score"":0,""parcel"":""first"",""corResp"":""left"",""condition"":""Poor people/Bad words,Middle people/Good words"",""block"":7}",,,
f57fa71b901076d4b57ee6fda4ac7cc3ff7244ad,my-time,,,att1left,,,,,178,178,left,826,"[""Bad words""]","[""苦しみ""]","{""score"":0,""parcel"":""first"",""corResp"":""left"",""condition"":""Poor people/Bad words,Middle people/Good words"",""block"":7}",,,
f57fa71b901076d4b57ee6fda4ac7cc3ff7244ad,my-time,,,cat2right,,,,,179,179,right,738,"[""Middle people""]","[""rich5.jpg""]","{""score"":0,""parcel"":""first"",""corResp"":""right"",""condition"":""Poor people/Bad words,Middle people/Good words"",""block"":7}",,,
f57fa71b901076d4b57ee6fda4ac7cc3ff7244ad,my-time,,,att1left,,,,,180,180,left,1161,"[""Bad words""]","[""ひどい""]","{""score"":0,""parcel"":""first"",""corResp"":""left"",""condition"":""Poor people/Bad words,Middle people/Good words"",""block"":7}",,,
f57fa71b901076d4b57ee6fda4ac7cc3ff7244ad,my-time,,,cat1left,,,,,181,181,left,1328,"[""Poor people""]","[""poverty1.jpg""]","{""score"":0,""parcel"":""first"",""corResp"":""left"",""condition"":""Poor people/Bad words,Middle people/Good words"",""block"":7}",,,
f57fa71b901076d4b57ee6fda4ac7cc3ff7244ad,my-time,,,att2right,,,,,182,182,right,717,"[""Good words""]","[""平和""]","{""score"":0,""parcel"":""first"",""corResp"":""right"",""condition"":""Poor people/Bad words,Middle people/Good words"",""block"":7}",,,
f57fa71b901076d4b57ee6fda4ac7cc3ff7244ad,my-time,,,cat2right,,,,,183,183,right,911,"[""Middle people""]","[""rich2.jpg""]","{""score"":0,""parcel"":""first"",""corResp"":""right"",""condition"":""Poor people/Bad words,Middle people/Good words"",""block"":7}",,,
f57fa71b901076d4b57ee6fda4ac7cc3ff7244ad,my-time,,,att1left,,,,,184,184,left,712,"[""Bad words""]","[""悪""]","{""score"":0,""parcel"":""first"",""corResp"":""left"",""condition"":""Poor people/Bad words,Middle people/Good words"",""block"":7}",,,
f57fa71b901076d4b57ee6fda4ac7cc3ff7244ad,my-time,,,cat1left,,,,,185,185,left,641,"[""Poor people""]","[""poverty6.jpg""]","{""score"":0,""parcel"":""first"",""corResp"":""left"",""condition"":""Poor people/Bad words,Middle people/Good words"",""block"":7}",,,
f57fa71b901076d4b57ee6fda4ac7cc3ff7244ad,my-time,,,att2right,,,,,186,186,right,841,"[""Good words""]","[""すばらしい""]","{""score"":0,""parcel"":""first"",""corResp"":""right"",""condition"":""Poor people/Bad words,Middle people/Good words"",""block"":7}",,,
f57fa71b901076d4b57ee6fda4ac7cc3ff7244ad,my-time,,,cat1left,,,,,187,187,left,707,"[""Poor people""]","[""poverty4.jpg""]","{""score"":0,""parcel"":""first"",""corResp"":""left"",""condition"":""Poor people/Bad words,Middle people/Good words"",""block"":7}",,,
f57fa71b901076d4b57ee6fda4ac7cc3ff7244ad,my-time,,,att1left,,,,,188,188,left,853,"[""Bad words""]","[""汚い""]","{""score"":0,""parcel"":""first"",""corResp"":""left"",""condition"":""Poor people/Bad words,Middle people/Good words"",""block"":7}",,,
f57fa71b901076d4b57ee6fda4ac7cc3ff7244ad,my-time,,,cat2right,,,,,189,189,right,649,"[""Middle people""]","[""rich6.jpg""]","{""score"":0,""parcel"":""first"",""corResp"":""right"",""condition"":""Poor people/Bad words,Middle people/Good words"",""block"":7}",,,
f57fa71b901076d4b57ee6fda4ac7cc3ff7244ad,my-time,,,att2right,,,,,190,190,right,617,"[""Good words""]","[""楽しい""]","{""score"":0,""parcel"":""first"",""corResp"":""right"",""condition"":""Poor people/Bad words,Middle people/Good words"",""block"":7}",,,
f57fa71b901076d4b57ee6fda4ac7cc3ff7244ad,my-time,,,cat2right,,,,,191,191,right,1027,"[""Middle people""]","[""rich1.jpg""]","{""score"":0,""parcel"":""first"",""corResp"":""right"",""condition"":""Poor people/Bad words,Middle people/Good words"",""block"":7}",,,
f57fa71b901076d4b57ee6fda4ac7cc3ff7244ad,my-time,,,att1left,,,,,192,192,left,621,"[""Bad words""]","[""傷""]","{""score"":0,""parcel"":""first"",""corResp"":""left"",""condition"":""Poor people/Bad words,Middle people/Good words"",""block"":7}",,,
f57fa71b901076d4b57ee6fda4ac7cc3ff7244ad,my-time,,,cat1left,,,,,193,193,left,838,"[""Poor people""]","[""poverty5.jpg""]","{""score"":0,""parcel"":""first"",""corResp"":""left"",""condition"":""Poor people/Bad words,Middle people/Good words"",""block"":7}",,,
f57fa71b901076d4b57ee6fda4ac7cc3ff7244ad,my-time,,,att2right,,,,,194,194,right,800,"[""Good words""]","[""素晴らしい""]","{""score"":0,""parcel"":""first"",""corResp"":""right"",""condition"":""Poor people/Bad words,Middle people/Good words"",""block"":7}",,,
f57fa71b901076d4b57ee6fda4ac7cc3ff7244ad,my-time,,,instructions,,,,,195,195,space,5063,"[""Default""]","[""Press space to continue to the next task""]","{""blockStart"":true,""condition"":""instructions"",""score"":0,""block"":0}",,,
f57fa71b901076d4b57ee6fda4ac7cc3ff7244ad,my-time,,,,,,,,,,,,,,,"Middle people/Bad words,Poor people/Good words",Your responses suggested a strong automatic preference for Middle people over Poor people.,-1.10
f57fa71b901076d4b57ee6fda4ac7cc3ff7244ad,namelessTask,4,,,,,,,,,,,,,,,,
